time_since_start,bme_temp,bme_alt,uv,ism_temp,acc_x,acc_y,acc_z,gps_time,latitude,longitude,gps_alt,speed,sats
19186,35.46,405.88,25,27.94,-3.26,7.82,5.66,10:31:50,33.664295,-114.007217,0,0.25,0
20187,35.51,406.4,26,27.96,-3.79,7.21,5.42,10:31:51,33.664299,-114.007217,465.2,0.2,7
21188,35.54,406.48,35,27.98,-2.9,7.22,6.01,10:31:52,33.664299,-114.007217,465.4,0.13,6
22189,35.56,406.4,19,27.94,-3.09,7.04,5.75,10:31:53,33.664307,-114.007217,468.6,0.09,9
23190,35.58,405.97,26,27.97,-2.74,7.47,5.66,10:31:54,33.664314,-114.007217,471.5,0.13,9
24191,35.59,405.79,18,27.99,-2.69,7.55,5.8,10:31:55,33.664322,-114.00721,474.1,0.06,8
30197,35.58,405.19,15,27.97,-2.41,7.49,6.07,10:32:01,33.664341,-114.007332,476.1,0.3,8
31198,35.62,405.1,15,28.01,-2.51,7.54,6.05,10:32:02,33.664356,-114.007362,467.5,0.45,9
32199,35.62,404.93,18,28,-2.46,7.47,6,10:32:03,33.664352,-114.007362,462.1,0.48,8
33200,35.59,404.75,15,28.03,-2.43,7.29,5.84,10:32:04,33.66436,-114.007362,459.5,0.4,8
34201,35.57,408.82,18,27.96,-2.34,7.19,6.07,10:32:05,33.664364,-114.00737,456.7,0.4,8
35202,35.57,411.85,18,28.04,-2.43,7.32,5.95,10:32:06,33.664364,-114.007385,454.1,0.44,9
36203,35.46,414.19,18,28.02,-2.65,7.2,6.09,10:32:07,33.664364,-114.007385,450,0.4,9
37204,35.34,415.93,19,28.05,-2.3,7.33,6.24,10:32:08,33.66436,-114.007401,448.3,0.33,9
38205,35.24,417.23,16,28.06,-2.68,7.17,6.18,10:32:09,33.664356,-114.007408,443.7,0.49,9
39206,35.13,418.35,18,28.02,-2.59,7.25,6.28,10:32:10,33.664379,-114.007401,450.1,0.53,13
40207,35.01,419.05,18,28.05,-2.71,7.12,6.45,10:32:11,33.664398,-114.007401,454.7,0.44,13
41208,34.94,419.65,18,28.03,-2.73,7.18,6.17,10:32:12,33.664402,-114.007385,455.8,0.4,13
42209,34.9,420.09,18,28.05,-2.99,7.16,6.41,10:32:13,33.664402,-114.007385,455.6,0.35,13
43210,34.87,416.45,23,28.04,-2.7,7.09,6.22,10:32:14,33.664406,-114.007385,457.3,0.52,13
44211,34.86,415.93,30,28,-3.13,7.12,5.41,10:32:15,33.664406,-114.007385,457.9,0.39,13
45212,34.9,415.41,70,28.07,-4.71,7.31,3.6,10:32:16,33.664406,-114.007385,457.7,0.31,13
46213,34.95,416.79,26,28.02,-5.46,7.94,2.56,10:32:17,33.664406,-114.007385,457.9,0.32,13
47214,34.95,417.92,25,28.04,-5.65,5.87,-0.14,10:32:18,33.664402,-114.007385,457.1,0.33,13
48215,34.92,418.7,24,28.03,-6.18,7.45,0.89,10:32:19,33.664402,-114.007385,456.3,0.37,13
49216,34.88,419.31,25,28.07,-6.36,7.22,0.51,10:32:20,33.664398,-114.007385,456.1,0.3,13
50217,34.82,419.83,21,28.05,-7.54,6.54,1.01,10:32:21,33.664394,-114.007385,455,0.39,13
51218,34.77,420.26,19,28.07,-7.3,6.16,1.07,10:32:22,33.664391,-114.007385,454.5,0.36,13
52219,34.72,420.52,19,28.07,-7.42,6.4,0.45,10:32:23,33.664387,-114.007385,453.6,0.38,13
53220,34.64,420.78,21,28.02,-7.21,6.03,0.25,10:32:24,33.664387,-114.007385,452.9,0.38,13
54221,34.52,421.04,20,28.06,-7.28,5.9,-0.38,10:32:25,33.664429,-114.007401,457.6,0.52,13
55222,34.39,421.13,23,28.02,-8.16,6.26,0.22,10:32:26,33.664455,-114.007408,460.2,0.4,13
56223,34.27,421.21,20,28.06,-8.57,5.57,-0.1,10:32:27,33.664482,-114.007408,462.8,0.49,13
57224,34.15,421.39,21,28.06,-7.52,5.92,0.25,10:32:28,33.664497,-114.007423,464.5,0.45,13
58225,34.03,421.39,21,28,-7.79,6.02,0.02,10:32:29,33.664509,-114.007423,465.7,0.41,13
59226,33.92,421.3,20,28.03,-7.67,5.79,-0.08,10:32:30,33.664513,-114.007423,466.3,0.21,13
60227,33.8,421.21,19,28.05,-7.67,5.92,0.75,10:32:31,33.664516,-114.007423,466.7,0.09,13
61228,33.7,421.21,21,28.05,-8.09,5.78,0.56,10:32:32,33.66452,-114.007423,466.9,0.08,13
62229,33.6,421.21,21,28.08,-7.67,6.08,0.85,10:32:33,33.66452,-114.007423,467,0.1,13
63230,33.49,421.3,25,28.06,-7.83,6.24,0.35,10:32:34,33.664524,-114.007423,467.2,0.18,13
64231,33.42,421.39,25,28.07,-7.59,5.76,0.51,10:32:35,33.664528,-114.007423,467.3,0.26,13
65232,33.34,421.47,25,28.06,-7.79,5.5,0.63,10:32:36,33.664532,-114.007423,467.5,0.16,13
66233,33.27,421.47,19,28.07,-7.69,5.89,0.41,10:32:37,33.664536,-114.007423,467.7,0.15,13
67234,33.19,421.39,19,28.09,-8.11,6.13,0.01,10:32:38,33.664539,-114.007423,467.9,0.03,13
68235,33.13,421.39,16,28.06,-8.13,5.99,0.94,10:32:39,33.664539,-114.007423,468,0.05,13
69236,33.06,421.39,19,28.08,-8.3,5.17,1.15,10:32:40,33.664547,-114.007423,469.2,0.08,14
70237,32.99,421.3,19,28.05,-8.35,5.07,1.53,10:32:41,33.664555,-114.007423,470.1,0.13,14
71238,32.91,421.13,34,28.06,-8.34,5.02,1.74,10:32:42,33.664562,-114.007423,470.7,0.12,14
72239,32.82,420.95,140,28.07,-7.81,5.36,3,10:32:43,33.66457,-114.007423,471.8,0.06,14
73240,32.71,420.87,35,28.05,-7.64,5.03,2.7,10:32:44,33.664577,-114.007423,472.6,0.08,14
74241,32.63,418.09,167,28.04,-8.02,4.94,3.26,10:32:45,33.664589,-114.007423,472.7,0.05,14
75242,32.57,397.4,181,28.08,-6.92,4.19,4.05,10:32:46,33.664597,-114.007439,473.1,0.41,14
76243,32.82,381.49,94,28.09,-8.09,6.11,3.91,10:32:47,33.6646,-114.007439,473.2,1.24,14
77244,33.14,387.45,171,28.07,-7.79,5.33,3.38,10:32:48,33.6646,-114.007439,473.6,1.6,14
78245,33.07,395.24,141,28.05,-7.66,5.93,2.62,10:32:49,33.664604,-114.007439,474.7,1.23,14
79246,33,401.46,31,28.08,-6.52,5.32,5.24,10:32:50,33.664604,-114.007439,475,0.77,14
80247,32.89,406.14,16,28.07,-8.11,4.03,3.83,10:32:51,33.664608,-114.007439,475.1,0.86,14
81248,32.77,409.69,18,28.05,-8.58,3.46,3.24,10:32:52,33.664608,-114.007439,475.3,0.37,14
82249,32.64,412.29,11,28.09,-7.81,4.44,3.07,10:32:53,33.664612,-114.007439,475.5,0.3,14
83250,32.52,414.37,14,28.07,-8.68,4.24,2,10:32:54,33.664612,-114.007439,475.6,0.14,14
84251,32.42,415.84,13,28.04,-8.39,4.55,1.75,10:32:55,33.664612,-114.007423,475.4,0.12,14
85252,32.34,417.05,13,28.09,-8.93,3.85,1.62,10:32:56,33.664612,-114.007423,475.5,0.1,14
86253,32.28,417.92,19,28.07,-9.45,2.39,2.08,10:32:57,33.664612,-114.007423,475.4,0.14,14
87254,32.21,418.61,15,28.07,-9.32,2.47,2.14,10:32:58,33.664612,-114.007423,475.4,0.07,14
88255,32.14,419.05,18,28.09,-9.35,2.46,2.04,10:32:59,33.664612,-114.007423,475.4,0.02,14
89256,32.07,419.39,16,28.09,-9.07,2.35,2.13,10:33:00,33.664612,-114.007423,475.5,0.03,14
90257,32,419.65,0,28.09,-9.31,2.67,2.22,10:33:01,33.664612,-114.007423,475.5,0.02,14
91258,31.95,419.83,14,28.08,-9.4,2.6,2.02,10:33:02,33.664612,-114.007423,475.5,0.08,14
92259,31.9,420.09,16,28.11,-9.31,2.59,2.01,10:33:03,33.664612,-114.007423,475.5,0.06,14
93260,31.84,420.17,13,28.09,-9.49,2.18,2.05,10:33:04,33.664612,-114.007423,475.5,0.1,14
94261,31.8,420.17,16,28.07,-9.53,2.33,2.09,10:33:05,33.664612,-114.007423,475.5,0.14,14
95262,31.77,420,25,28.06,-9.31,2.4,2.08,10:33:06,33.664612,-114.007423,475.5,0.13,14
96263,31.74,420,0,28.09,-9.26,2.54,2.22,10:33:07,33.664616,-114.007423,475.5,0.08,13
97264,31.72,420,39,28.11,-7.59,4.31,3.3,10:33:08,33.664616,-114.007423,475.5,0.1,14
98265,31.68,419.74,42,28.07,-7.83,4.68,3.7,10:33:09,33.664616,-114.007423,475.5,0.12,13
99266,31.63,419.74,42,28.07,-7.51,5.6,3.08,10:33:10,33.664616,-114.007423,475.5,0.01,15
100267,31.56,420,42,28.08,-7.65,5.53,3.23,10:33:11,33.664616,-114.007423,475.5,0.09,15
101268,31.49,420.17,43,28.1,-7.38,5.68,3.26,10:33:12,33.664616,-114.007423,475.5,0.03,15
102269,31.43,420.17,42,28.05,-7.06,5.9,3.33,10:33:13,33.664616,-114.007423,475.4,0.06,15
103270,31.36,420.26,40,28.05,-6.44,6.41,3.61,10:33:14,33.664616,-114.007423,475.4,0.07,15
104271,31.29,420.26,39,28.09,-7.28,6.02,2.77,10:33:15,33.664616,-114.007423,475.4,0.1,15
105272,31.24,420.35,38,28.11,-7.3,6.01,2.29,10:33:16,33.664616,-114.007423,475.4,0.08,15
106273,31.2,420.35,38,28.09,-7.26,6.16,2.72,10:33:17,33.664616,-114.007439,475.4,0.32,15
107274,31.16,420.43,36,28.09,-7.66,5.36,3.02,10:33:18,33.664616,-114.007439,475.4,0.15,15
108275,31.14,420.43,38,28.09,-7.42,5.7,2.36,10:33:19,33.664616,-114.007439,475.4,0.05,15
109276,31.09,420.43,38,28.1,-7.3,6.03,2.44,10:33:20,33.664616,-114.007439,475.3,0.68,15
110277,31.04,420.35,38,28.05,-7.47,5.91,2.2,10:33:21,33.664616,-114.007439,475.6,0.64,15
111278,30.99,420.43,39,28.09,-7.5,5.62,2.65,10:33:22,33.664619,-114.007439,475.9,0.17,15
112279,30.93,420.43,34,28.07,-7.34,6.07,2.11,10:33:23,33.664619,-114.007439,475.9,0.02,15
113280,30.88,420.43,36,28.08,-7.26,6.05,2.1,10:33:24,33.664619,-114.007439,475.9,0.16,15
114281,30.81,420.35,36,28.1,-7.14,6.42,2.02,10:33:25,33.664619,-114.007439,475.9,0.13,15
115282,30.75,420.35,38,28.06,-7.14,6.3,1.94,10:33:26,33.664619,-114.007439,475.9,0.09,15
116283,30.71,420.35,38,28.09,-7.16,6.39,2.03,10:33:27,33.664619,-114.007439,475.9,0.08,15
117284,30.67,420.26,36,28.07,-7.43,5.97,1.24,10:33:28,33.664619,-114.007439,475.9,0.14,15
118285,30.63,420.26,44,28.09,-7.59,6.05,3.68,10:33:29,33.664619,-114.007439,475.9,0.01,15
119286,30.59,420.26,36,28.07,-9.38,3.63,1.12,10:33:30,33.664619,-114.007439,475.9,0.1,15
120287,30.55,420.26,38,28.09,-9.26,2.51,1.45,10:33:31,33.664619,-114.007439,475.9,0.24,15
121288,30.47,420.17,39,28.11,-9.38,2.43,1.52,10:33:32,33.664619,-114.007439,475.9,0.02,15
122289,30.4,420.17,39,28.12,-9.38,2.35,1.58,10:33:33,33.664619,-114.007439,475.9,0.06,15
123290,30.33,420.17,40,28.08,-9.45,2.2,1.69,10:33:34,33.664619,-114.007439,475.9,0.07,15
124291,30.26,420,40,28.09,-9.41,2.19,1.64,10:33:35,33.664619,-114.007439,475.9,0.15,15
125292,30.2,419.91,40,28.06,-9.43,2.09,1.61,10:33:36,33.664619,-114.007439,475.9,0.07,15
126293,30.15,419.91,40,28.09,-9.44,1.97,1.85,10:33:37,33.664619,-114.007439,475.9,0.03,15
127294,30.1,420,42,28.06,-9.68,0.47,2.36,10:33:38,33.664619,-114.007439,475.9,0.1,15
128295,30.03,420,42,28.12,-9.61,0.48,2.41,10:33:39,33.664619,-114.007439,475.9,0.15,15
129296,29.96,420,42,28.09,-9.72,0.54,2.43,10:33:40,33.664619,-114.007439,475.9,0.13,16
130297,29.89,420,44,28.11,-9.67,-0.24,2.25,10:33:41,33.664619,-114.007423,475.9,0.07,16
131298,29.84,419.74,43,28.08,-9.53,0.5,2.77,10:33:42,33.664619,-114.007423,475.9,0.15,16
132299,29.8,419.83,43,28.09,-9.42,0.37,2.63,10:33:43,33.664619,-114.007423,475.9,0.02,16
133300,29.76,419.91,42,28.09,-9.45,0.26,2.86,10:33:44,33.664619,-114.007423,475.9,0.01,16
134301,29.72,420,42,28.07,-9.52,0.15,2.84,10:33:45,33.664619,-114.007423,475.9,0.03,16
135302,29.66,419.91,43,28.08,-9.27,0.58,2.86,10:33:46,33.664619,-114.007423,475.9,0.01,16
136303,29.61,419.83,42,28.09,-9.45,0.21,2.92,10:33:47,33.664619,-114.007423,475.9,0,16
137304,29.56,419.91,40,28.08,-9.49,-0.52,2.42,10:33:48,33.664619,-114.007423,475.9,0,16
138305,29.53,419.83,42,28.08,-9.67,-0.2,2.34,10:33:49,33.664619,-114.007423,475.9,0.02,16
139306,29.48,419.83,42,28.1,-9.53,-0.17,2.28,10:33:50,33.664619,-114.007423,475.9,0,16
140307,29.42,419.83,73,28.07,-9.68,0.1,2.13,10:33:51,33.664619,-114.007423,475.8,0.03,16
141308,29.35,419.74,126,28.1,-10.09,1.27,1.66,10:33:52,33.664619,-114.007423,475.8,0.01,16
142309,29.3,419.91,30,28.08,-9.15,3.75,1.49,10:33:53,33.664619,-114.007423,475.8,0.01,16
143310,29.24,419.83,25,28.07,-6.36,6.79,-1.57,10:33:54,33.664619,-114.007423,475.8,0.02,16
144311,29.19,419.65,24,28.09,-4.14,6.63,-4.51,10:33:55,33.664619,-114.007423,475.8,0.01,16
145312,29.12,419.91,25,28.12,-5.24,5.46,-5.1,10:33:56,33.664619,-114.007423,475.8,0.12,16
146313,29.07,420,23,28.09,-6.29,4.98,-5.15,10:33:57,33.664619,-114.007423,475.8,0.05,16
147314,29.01,423.99,23,28.11,-7.87,6.07,1.35,10:33:58,33.664619,-114.007423,475.8,0.35,16
148315,28.97,421.21,87,28.1,-7.72,5.24,-0.54,10:33:59,33.664619,-114.007423,475.9,0.32,16
149316,28.96,421.21,18,28.08,-8.81,4.72,-0.87,10:34:00,33.664619,-114.007423,475.9,0.26,16
150317,28.92,419.65,14,28.12,-8.26,4.95,-0.88,10:34:01,33.664619,-114.007423,476,0.14,16
151318,28.85,412.81,14,28.1,-8.54,4.93,-0.76,10:34:02,33.664619,-114.007423,476,0.18,16
152319,28.8,414.63,15,28.05,-8.68,4.78,-0.43,10:34:03,33.664619,-114.007423,476,0.13,16
153320,28.76,416.19,16,28.09,-8.27,4.85,-0.46,10:34:04,33.664619,-114.007423,476,0.06,16
154321,28.71,417.31,14,28.09,-8.89,4.38,-0.51,10:34:05,33.664619,-114.007423,476,0.06,16
155322,28.66,418.18,14,28.08,-8.14,4.44,-0.98,10:34:06,33.664619,-114.007423,476,0.28,16
156323,28.62,418.79,15,28.07,-8.59,5.09,-0.24,10:34:07,33.664619,-114.007423,476,0.15,16
157324,28.58,419.13,15,28.09,-8.46,4.97,-0.62,10:34:08,33.664619,-114.007423,476,0.12,16
158325,28.54,419.57,14,28.09,-8.3,4.78,-0.93,10:34:09,33.664619,-114.007423,476,0.06,15
159326,28.49,419.83,14,28.09,-8.26,4.56,-1.24,10:34:10,33.664619,-114.007423,476,0.33,15
160327,28.44,420.09,14,28.08,-8.16,4.85,-1.02,10:34:11,33.664619,-114.007423,476,0.07,16
161328,28.4,420.26,23,28.07,-8.41,4.48,-1.36,10:34:12,33.664619,-114.007423,476,0.05,16
162329,28.35,420.35,42,28.07,-8.7,4.88,-0.76,10:34:13,33.664619,-114.007423,476,0.03,16
163330,28.31,420.43,14,28.07,-7.6,5.24,-0.8,10:34:14,33.664619,-114.007423,476,0.35,16
164331,28.27,417.14,15,28.08,-7.69,5.99,-0.45,10:34:15,33.664619,-114.007423,476,0.16,16
165332,28.22,418.01,18,28.09,-7.1,5.47,-1.06,10:34:16,33.664619,-114.007423,476,0.47,16
166333,28.19,418.7,16,28.08,-6.79,6.38,-1.56,10:34:17,33.664619,-114.007439,476,0.08,16
167334,28.14,418.96,18,28.07,-7.6,5.6,-1.75,10:34:18,33.664619,-114.007439,476,0.08,16
168335,28.07,419.22,121,28.08,-9.82,3.4,0.58,10:34:19,33.664619,-114.007439,476,0.13,16
169336,28,419.31,86,28.08,-8.87,4.52,0.12,10:34:20,33.664619,-114.007439,475.9,0.14,16
170337,27.94,403.8,148,28.07,-12.79,-4.19,5.14,10:34:21,33.664619,-114.007439,475.9,0.1,16
171338,27.91,407.87,36,28.07,-6.36,5.47,0.77,10:34:22,33.664619,-114.007439,475.9,0.55,16
172339,27.91,410.9,34,28.08,-8.26,4.4,0.66,10:34:23,33.664619,-114.007439,475.7,0.36,16
173340,27.88,412.81,29,28.08,-8.94,4.68,1.11,10:34:24,33.664619,-114.007439,475.7,0.23,16
174341,27.83,414.37,30,28.08,-8.57,4.32,0.74,10:34:25,33.664619,-114.007439,475.8,0.26,16
175342,27.77,415.67,31,28.09,-8.57,4.49,1,10:34:26,33.664619,-114.007439,475.8,0.18,16
176343,27.71,416.62,34,28.09,-8.42,4.54,1.18,10:34:27,33.664619,-114.007423,475.8,0.14,16
177344,27.67,417.31,29,28.11,-8.58,4.33,1.08,10:34:28,33.664619,-114.007423,476,0.14,16
178345,27.62,418.01,30,28.09,-8.61,4.27,1.18,10:34:29,33.664619,-114.007423,476,0.09,16
179346,27.58,418.44,26,28.08,-8.94,4.26,1.06,10:34:30,33.664619,-114.007423,476.1,0.08,16
180347,27.53,418.53,21,28.09,-8.89,4.33,0.95,10:34:31,33.664619,-114.007423,476.1,0.14,16
181348,27.48,418.79,53,28.08,-8.77,4.18,0.99,10:34:32,33.664623,-114.007423,476.2,0.1,16
182349,27.41,418.7,62,28.11,-8.91,3.6,2.28,10:34:33,33.664623,-114.007423,476.2,0.13,16
183350,27.35,418.79,55,28.09,-9.1,3.58,1.17,10:34:34,33.664623,-114.007423,476.3,0.26,16
184351,27.29,419.05,26,28.09,-9.59,3.43,0.87,10:34:35,33.664623,-114.007423,476.2,0.13,15
185352,27.23,419.13,19,28.08,-9.37,3.76,1.06,10:34:36,33.664623,-114.007423,476.3,0.15,16
186353,27.16,419.13,19,28.13,-8.82,4.06,0.83,10:34:37,33.664623,-114.007423,476.3,0.16,16
187354,27.11,419.31,42,28.1,-9.01,3.88,0.76,10:34:38,33.664623,-114.007423,476.3,0.08,16
188355,27.06,419.48,20,28.12,-8.9,3.91,0.64,10:34:39,33.664623,-114.007423,476.2,0.18,14
189356,27.03,419.57,18,28.1,-9.04,4.04,0.25,10:34:40,33.664623,-114.007423,476.2,0.05,17
190357,27,419.65,30,28.12,-9.06,3.8,0.14,10:34:41,33.664623,-114.007423,476.2,0.23,17
191358,26.98,419.74,0,28.11,-8.61,3.56,-0.22,10:34:42,33.664623,-114.007423,476.2,0.12,17
192359,26.96,419.74,26,28.09,-8.99,3.84,0.53,10:34:43,33.664623,-114.007423,476.2,0.18,17
193360,26.94,419.91,0,28.08,-9.17,3.9,-0.17,10:34:44,33.664623,-114.007423,476.2,0.15,17
194361,26.93,419.91,0,28.07,-9.28,3.66,-0.52,10:34:45,33.664623,-114.007423,476.2,0.1,17
195362,26.92,419.91,0,28.09,-9.19,3.53,0.56,10:34:46,33.664623,-114.007423,476.2,0.54,17
196363,26.91,419.91,33,28.08,-9.21,3.35,0.02,10:34:47,33.664623,-114.007439,476.2,0.22,17
197364,26.9,420.09,34,28.11,-9.21,3.32,-0.17,10:34:48,33.664623,-114.007439,476.2,0.12,17
198365,26.88,420,3,28.09,-9.16,3.41,-0.06,10:34:49,33.664623,-114.007439,476.3,0.12,17
199366,26.84,420,29,28.1,-9.24,3.09,-0.27,10:34:50,33.664623,-114.007439,476.3,0.1,17
200367,26.79,419.91,30,28.08,-9.16,3.2,-0.08,10:34:51,33.664623,-114.007423,476.3,0.1,17
201368,26.75,419.83,50,28.1,-9.29,3.13,-0.07,10:34:52,33.664623,-114.007423,476.3,0.18,17
202369,26.7,419.91,0,28.11,-9.19,3.39,0.02,10:34:53,33.664627,-114.007423,476.3,0.36,17
203370,26.65,419.83,34,28.09,-9.12,3.14,-0.22,10:34:54,33.664627,-114.007423,476.3,0.24,17
204371,26.59,419.83,0,28.09,-8.96,3.13,-0.52,10:34:55,33.664627,-114.007423,476.4,0.21,17
205372,26.52,419.74,0,28.09,-9.05,3.84,-1.33,10:34:56,33.664623,-114.007423,476.4,0.18,17
206373,26.48,419.74,50,28.1,-9.13,3.46,-1.06,10:34:57,33.664623,-114.007423,476.4,0.31,17
207374,26.42,419.91,140,28.09,-8.97,3.64,-1,10:34:58,33.664623,-114.007423,476.4,0.12,17
208375,26.36,419.91,0,28.12,-9.15,2.94,-0.95,10:34:59,33.664623,-114.007423,476.4,0.06,17
209376,26.31,420,0,28.09,-9.1,3.27,-1.19,10:35:00,33.664623,-114.007423,476.5,0.53,17
210377,26.26,420.09,55,28.1,-9.24,3.24,-1.01,10:35:01,33.664627,-114.007423,476.4,0.2,17
211378,26.23,419.91,119,28.13,-9.38,2.89,-0.26,10:35:02,33.664627,-114.007423,476.6,0.08,17
212379,26.19,419.91,148,28.12,-9.12,2.97,-0.06,10:35:03,33.664627,-114.007423,476.9,0.1,17
213380,26.14,419.65,122,28.12,-9.33,3.12,0.47,10:35:04,33.664627,-114.007423,477,0.33,17
214381,26.09,419.57,206,28.08,-9.56,2.46,-0.08,10:35:05,33.664627,-114.007423,476.9,0.29,17
215382,26.04,419.48,21,28.09,-9.34,2.77,-0.36,10:35:06,33.664627,-114.007423,476.9,0.28,17
216383,26,419.48,29,28.09,-9.08,3.55,0.5,10:35:07,33.664623,-114.007423,477.2,0.26,17
217384,25.95,419.39,39,28.1,-9.17,3.52,0.1,10:35:08,33.664623,-114.007423,477.1,0.4,17
218385,25.9,419.39,23,28.13,-8.86,3.54,-0.5,10:35:09,33.664627,-114.007423,477.2,0.18,17
219386,25.86,419.57,24,28.12,-8.91,3.7,-0.17,10:35:10,33.664623,-114.007423,477.2,0.12,17
220387,25.83,419.65,78,28.1,-9.04,3.93,-0.67,10:35:11,33.664623,-114.007423,477.2,0.15,17
221388,25.79,419.74,23,28.11,-8.87,3.38,-0.3,10:35:12,33.664623,-114.007423,477.1,0.37,17
222389,25.77,419.83,36,28.11,-8.98,3.71,-1.01,10:35:13,33.664623,-114.007423,477.3,0.41,17
223390,25.74,419.91,16,28.09,-9.06,3.28,-0.48,10:35:14,33.664623,-114.007423,477.5,0.1,17
224391,25.7,419.91,24,28.09,-9.13,3.27,-0.82,10:35:15,33.664623,-114.007423,477.7,0.22,17
225392,25.66,419.83,26,28.12,-9.02,3.35,-0.62,10:35:16,33.664623,-114.007423,477.6,0.39,17
226393,25.62,419.83,0,28.12,-9.43,3.01,-0.8,10:35:17,33.664627,-114.007423,477.7,0.54,17
227394,25.58,419.83,25,28.12,-9.1,3.22,-0.54,10:35:18,33.664623,-114.007423,477.8,0.09,17
228395,25.55,419.83,140,28.1,-9.43,3.01,-0.41,10:35:19,33.664623,-114.007423,477.9,0.09,17
229396,25.53,419.91,102,28.12,-9.55,2.53,0.07,10:35:20,33.664623,-114.007423,478.1,0.61,17
230397,25.5,419.83,29,28.09,-9.49,2.85,0.04,10:35:21,33.664623,-114.007423,478.1,0.3,17
231398,25.48,419.83,30,28.11,-9.08,2.92,-0.26,10:35:22,33.664623,-114.007423,477.9,0.22,17
232399,25.46,419.74,26,28.11,-9.47,2.93,-0.21,10:35:23,33.664623,-114.007423,477.8,0.77,17
233400,25.43,419.65,20,28.12,-9.44,2.8,-0.33,10:35:24,33.664623,-114.007423,477.9,0.46,17
234401,25.4,419.57,21,28.14,-9.36,2.9,-0.39,10:35:25,33.664627,-114.007423,478.1,0.45,17
235402,25.35,419.48,28,28.11,-9.1,2.83,-1.36,10:35:26,33.664627,-114.007423,477.8,0.45,17
236403,25.31,419.48,9,28.15,-7.97,0.92,0.72,10:35:27,33.664627,-114.007423,477.9,0.44,17
237404,25.26,419.48,40,28.12,-9.84,3.09,0.84,10:35:28,33.664631,-114.007423,477.9,0.41,17
238405,25.21,419.48,40,28.09,-9.3,2.92,0.42,10:35:29,33.664635,-114.007423,478.1,0.47,17
239406,25.16,419.48,102,28.13,-12.1,3.66,4.91,10:35:30,33.664639,-114.007423,478.2,0.46,17
240407,25.12,419.31,9,28.12,-10.13,1.23,1.37,10:35:31,33.664639,-114.007423,478.4,0.45,17
241408,25.1,419.13,0,28.1,-10.24,0.71,1.91,10:35:32,33.664639,-114.007423,478.4,0.44,17
242409,25.09,419.22,0,28.12,-9.23,-1.3,0,10:35:33,33.664642,-114.007423,478.4,0.41,17
243410,25.08,419.48,24,28.12,-9.95,-1.26,1.37,10:35:34,33.664642,-114.007423,478.4,0.38,17
244411,25.07,419.65,16,28.11,-9.83,-3.59,2.76,10:35:35,33.664646,-114.007423,478.5,0.35,17
245412,25.06,419.83,15,28.12,-9.66,-1.83,1.2,10:35:36,33.66465,-114.007423,478.5,0.35,16
246413,25.04,419.91,15,28.12,-9.68,-1.67,1.06,10:35:37,33.66465,-114.007423,478.5,0.33,17
247414,25.02,420.09,20,28.14,-9.67,-1.91,1.69,10:35:38,33.664654,-114.007423,478.6,0.33,17
248415,25,420,16,28.13,-9.61,-2.37,-1.01,10:35:39,33.664654,-114.007423,478.6,0.31,17
249416,24.96,419.83,24,28.12,-9.14,-3.14,-1.38,10:35:40,33.664658,-114.007423,478.6,0.3,17
250417,24.93,419.83,24,28.1,-8.82,-3.63,-2.17,10:35:41,33.664658,-114.007423,478.7,0.29,17
251418,24.9,419.74,24,28.12,-8.89,-3.9,-2.03,10:35:42,33.664658,-114.007408,478.8,0.3,17
252419,24.88,419.74,25,28.12,-9.01,-4.1,-1.44,10:35:43,33.664658,-114.007423,478.9,0.3,17
253420,24.86,419.74,25,28.17,-8.96,-4,-1.54,10:35:44,33.664661,-114.007423,479,0.31,17
254421,24.84,419.74,26,28.09,-8.97,-3.8,-1.22,10:35:45,33.664661,-114.007423,479.2,0.31,17
255422,24.81,419.65,25,28.09,-8.98,-3.64,-1.47,10:35:46,33.664661,-114.007423,479.4,0.29,17
256423,24.8,419.65,25,28.1,-8.6,-3.14,-1.5,10:35:47,33.664661,-114.007423,479.6,0.23,17
257424,24.78,419.74,28,28.12,-9.06,-3.32,-1.2,10:35:48,33.664661,-114.007423,479.7,0.17,17
258425,24.76,419.83,29,28.09,-8.54,-1.87,-0.85,10:35:49,33.664661,-114.007423,479.9,0.12,17
259426,24.73,419.83,29,28.1,-8.57,-4.37,-1.12,10:35:50,33.664661,-114.007423,480.2,0.08,17
260427,24.71,419.83,29,28.1,-8.57,-4.59,-1.3,10:35:51,33.664661,-114.007423,480.4,0.06,17
261428,24.69,419.83,29,28.08,-8.51,-4.67,-1.26,10:35:52,33.664661,-114.007423,480.6,0.06,17
262429,24.68,419.91,28,28.12,-8.72,-4.74,-1.07,10:35:53,33.664661,-114.007423,480.8,0.06,17
263430,24.65,419.91,25,28.11,-8.51,-4.57,-1.13,10:35:54,33.664661,-114.007439,481,0.07,17
264431,24.63,419.91,26,28.09,-8.72,-4.75,-0.96,10:35:55,33.664658,-114.007439,481.2,0.08,17
265432,24.62,419.83,21,28.12,-8.81,-3.87,-1.69,10:35:56,33.664658,-114.007439,481.4,0.07,17
266433,24.6,419.83,21,28.11,-8.92,-3.91,-1.71,10:35:57,33.664658,-114.007439,481.5,0.07,17
267434,24.59,419.83,23,28.11,-8.89,-4.04,-2.04,10:35:58,33.664658,-114.007439,481.6,0.06,17
268435,24.58,419.83,20,28.09,-8.89,-3.68,-1.15,10:35:59,33.664658,-114.007439,481.9,0.06,17
269436,24.56,419.83,19,28.13,-8.79,-3.38,-1.78,10:36:00,33.664661,-114.007439,482.1,0.05,17
270437,24.53,419.83,18,28.11,-9.42,-3.82,-2.65,10:36:01,33.664658,-114.007439,482.4,0.03,17
271438,24.51,419.83,15,28.12,-9.15,-2.7,-2.13,10:36:02,33.664658,-114.007439,482.5,0.03,17
272439,24.5,419.83,18,28.12,-9.6,-3.07,-1.99,10:36:03,33.664658,-114.007439,482.6,0.02,17
273440,24.48,419.83,16,28.11,-9.27,-3.07,-2.11,10:36:04,33.664658,-114.007439,482.8,0.02,17
274441,24.47,419.74,16,28.11,-9.18,-2.88,-2.53,10:36:05,33.664658,-114.007446,483,0.01,17
275442,24.46,419.74,21,28.09,-8.94,-2.87,-2.63,10:36:06,33.664658,-114.007446,483.1,0.02,17
276443,24.45,419.74,23,28.07,-8.69,-2.66,-2.7,10:36:07,33.664658,-114.007446,483.1,0.01,17
277444,24.45,419.74,24,28.12,-9.13,-2.54,-2.69,10:36:08,33.664658,-114.007446,483.2,0.03,17
278445,24.44,419.74,26,28.09,-9.17,-2.34,-2.57,10:36:09,33.664658,-114.007446,483.3,0.17,17
279446,24.43,419.74,24,28.09,-9.24,-1.3,-2.56,10:36:10,33.664658,-114.007446,483.3,0.09,17
280447,24.43,419.74,25,28.1,-9.35,-1.64,-2.14,10:36:11,33.664658,-114.007446,483.3,0.05,17
281448,24.42,419.74,26,28.11,-9.51,-1.45,-2.28,10:36:12,33.664658,-114.007446,483.3,0.08,17
282449,24.42,419.74,28,28.12,-9.82,-1.63,-1.73,10:36:13,33.664658,-114.007446,483.3,0.07,17
283450,24.41,419.65,26,28.08,-8.85,-1.79,-2.64,10:36:14,33.664658,-114.007446,483.3,0.01,17
284451,24.41,419.65,24,28.07,-9.08,-1.41,-2.51,10:36:15,33.664658,-114.007446,483.4,0.02,17
285452,24.38,419.57,23,28.13,-9.07,-1.89,-2.78,10:36:16,33.664658,-114.007446,483.4,0.18,17
286453,24.35,419.48,25,28.11,-9.08,-2.1,-2.8,10:36:17,33.664658,-114.007446,483.5,0.21,17
287454,24.33,419.48,24,28.09,-9.2,-1.83,-2.7,10:36:18,33.664658,-114.007446,483.4,0.1,17
288455,24.31,419.48,24,28.09,-9.13,-1.51,-2.38,10:36:19,33.664658,-114.007446,483.4,0.1,17
289456,24.28,419.57,24,28.09,-9.19,-1.56,-2.67,10:36:20,33.664658,-114.007446,483.4,0.08,17
290457,24.25,419.48,24,28.08,-9.09,-1.7,-2.86,10:36:21,33.664658,-114.007446,483.4,0.09,17
291458,24.24,419.39,24,28.1,-8.69,-1.86,-2.76,10:36:22,33.664658,-114.007446,483.4,0.09,17
292459,24.22,419.31,23,28.12,-9.26,-1.88,-3.1,10:36:23,33.664658,-114.007446,483.3,0.08,17
293460,24.2,419.31,24,28.09,-9.15,-1.93,-2.9,10:36:24,33.664658,-114.007446,483.3,0.06,17
294461,24.17,419.22,25,28.12,-8.65,-1.86,-3.1,10:36:25,33.664658,-114.007446,483.3,0.06,17
295462,24.15,419.22,21,28.12,-8.82,-2.38,-2.97,10:36:26,33.664658,-114.007446,483.3,0.03,17
296463,24.12,419.31,23,28.12,-9.21,-2.02,-3.25,10:36:27,33.664658,-114.007446,483.3,0.02,16
297464,24.09,419.31,21,28.12,-9.21,-1.92,-3.42,10:36:28,33.664658,-114.007446,483.3,0.02,17
298465,24.07,419.31,24,28.1,-8.78,-1.73,-3.78,10:36:29,33.664658,-114.007446,483.3,0.12,17
299466,24.05,419.31,25,28.12,-8.83,-2.37,-3.77,10:36:30,33.664658,-114.007439,483.3,0.12,17
300467,24.04,419.31,24,28.11,-8.8,-1.67,-3.53,10:36:31,33.664658,-114.007439,483.3,0.1,17
301468,24.03,419.31,24,28.11,-8.71,-1.55,-3.8,10:36:32,33.664658,-114.007439,483.3,0.09,17
302469,24.01,419.39,24,28.09,-8.62,-1.32,-3.8,10:36:33,33.664658,-114.007439,483.3,0.06,17
303470,23.99,419.31,24,28.11,-8.62,-1.96,-4.01,10:36:34,33.664658,-114.007439,483.3,0.25,17
304471,23.97,419.31,24,28.09,-8.56,-1.74,-3.99,10:36:35,33.664658,-114.007439,483.3,0.13,17
305472,23.96,419.39,24,28.12,-8.71,-1.33,-3.86,10:36:36,33.664658,-114.007446,483.4,0.13,17
306473,23.94,419.39,24,28.11,-8.72,-1.75,-4.12,10:36:37,33.664658,-114.007446,483.4,0.06,17
307474,23.93,419.39,23,28.12,-8.34,-2.03,-4.41,10:36:38,33.664658,-114.007446,483.4,0.08,17
308475,23.92,419.39,23,28.11,-8.51,-1.79,-4.22,10:36:39,33.664658,-114.007446,483.4,0.07,17
309476,23.91,419.39,23,28.08,-8.68,-1.49,-4.3,10:36:41,33.664658,-114.007439,483.4,0.06,17
310477,23.91,419.39,24,28.11,-8.67,-1.17,-4.51,10:36:42,33.664658,-114.007439,483.4,0.13,17
311479,23.9,419.31,23,28.12,-8.45,-1.9,-4.64,10:36:43,33.664658,-114.007439,483.5,0.1,17
312479,23.9,419.39,24,28.1,-8.24,-1.59,-3.86,10:36:44,33.664658,-114.007439,483.5,0.16,17
313480,23.9,419.48,24,28.1,-8.78,-2.25,-4.15,10:36:45,33.664658,-114.007439,483.5,0.13,17
314481,23.91,419.39,23,28.1,-8.6,-2,-4.35,10:36:46,33.664658,-114.007439,483.6,0.05,17
315482,23.91,419.48,23,28.11,-8.73,-2.1,-4.36,10:36:47,33.664658,-114.007439,483.6,0.16,17
316483,23.92,419.39,23,28.14,-8.63,-2.39,-4.47,10:36:47,33.664658,-114.007439,483.6,0.06,17
317484,23.91,419.39,24,28.11,-9.12,-2.16,-3.43,10:36:48,33.664658,-114.007439,483.6,0.03,17
318485,23.91,419.48,21,28.09,-8.85,-2.88,-3.86,10:36:50,33.664658,-114.007439,483.7,0.06,17
319486,23.9,419.57,21,28.09,-9.73,-3.48,-2.14,10:36:51,33.664658,-114.007446,483.8,0.1,17
320487,23.89,419.57,20,28.08,-8.76,-2.08,-1.22,10:36:52,33.664658,-114.007446,483.8,0.09,17
321488,23.89,419.65,23,28.1,-9.48,-3.35,0.25,10:36:53,33.664658,-114.007446,483.8,0.13,17
322489,23.89,419.57,24,28.09,-9.04,-2.47,-2.45,10:36:54,33.664658,-114.007446,483.9,0.14,17
323490,23.88,419.83,25,28.12,-11.62,0.53,-2.13,10:36:54,33.664658,-114.007446,483.9,0.1,17
324491,23.88,419.83,23,28.11,-9.12,-2.32,-2.81,10:36:56,33.664658,-114.007446,484,0.1,17
325492,23.88,419.83,24,28.09,-8.53,-2.3,-3.41,10:36:57,33.664658,-114.007446,484,0.09,17
326493,23.87,419.74,23,28.1,-8.9,-1.88,-3.18,10:36:58,33.664658,-114.007446,484,0.14,17
327494,23.88,419.74,21,28.1,-9.09,-1.35,-3.2,10:36:59,33.664658,-114.007446,484,0.07,17
328495,23.87,419.74,23,28.11,-9.04,-1.68,-3.3,10:37:00,33.664658,-114.007446,484.1,0.08,17
329496,23.88,419.57,23,28.1,-8.99,-1.71,-3.64,10:37:01,33.664658,-114.007446,484.1,0.08,17
330497,23.87,419.48,23,28.12,-9.23,-1.79,-3.1,10:37:02,33.664658,-114.007446,484.2,0.25,17
331498,23.85,419.57,21,28.09,-9.83,-1.95,-3.01,10:37:03,33.664661,-114.007446,484.3,0.12,17
332499,23.83,419.65,23,28.09,-8.92,-1.2,-2.75,10:37:04,33.664661,-114.007446,484.3,0.14,17
333500,23.83,419.57,23,28.11,-9.61,-2.36,-2.37,10:37:05,33.664661,-114.007446,484.3,0.03,17
334501,23.83,419.65,23,28.12,-9.32,-1.93,-2.26,10:37:06,33.664661,-114.007446,484.2,0.03,17
335502,23.83,419.57,21,28.1,-9.79,-1.52,-1.79,10:37:07,33.664661,-114.007446,484.2,0.03,17
336503,23.83,419.57,21,28.12,-9.12,-2.13,-3.15,10:37:08,33.664661,-114.007446,484.2,0.03,16
337504,23.84,419.74,23,28.09,-9.23,-2.06,-2.77,10:37:09,33.664661,-114.007446,484.2,0.05,17
338505,23.85,419.65,26,28.11,-9.09,-1.51,-3.02,10:37:10,33.664661,-114.007446,484.2,0.06,17
339506,23.86,419.57,25,28.07,-9.36,-1.3,-2.36,10:37:11,33.664661,-114.007446,484.2,0.17,17
340507,23.86,419.48,24,28.12,-8.77,-1.33,-2.85,10:37:12,33.664661,-114.007446,484.2,0.16,17
341508,23.85,419.48,20,28.15,-9.8,-1.85,-2.79,10:37:13,33.664661,-114.007446,484.3,0.08,17
342509,23.85,419.48,24,28.11,-9.47,-0.85,-2.48,10:37:14,33.664661,-114.007446,484.3,0.15,17
343510,23.85,419.57,24,28.13,-9.02,-0.94,-2.78,10:37:15,33.664661,-114.007446,484.3,0.05,17
344511,23.85,419.57,23,28.13,-9.88,-1.41,-2.77,10:37:16,33.664661,-114.007446,484.3,0.1,17
345512,23.84,419.57,25,28.11,-8.83,-1.56,-3.8,10:37:17,33.664661,-114.007446,484.4,0.28,17
346513,23.82,419.48,28,28.13,-9.04,-1.45,-3.71,10:37:18,33.664661,-114.007446,484.6,0.23,17
347514,23.81,419.48,28,28.14,-9.11,-0.65,-3.29,10:37:19,33.664661,-114.007446,484.6,0.14,17
348515,23.8,419.39,26,28.12,-9.22,-0.67,-3.36,10:37:20,33.664665,-114.007446,484.6,0.06,17
349516,23.78,419.39,26,28.15,-9.54,-0.57,-3.47,10:37:21,33.664665,-114.007446,484.7,0.05,17
350517,23.75,419.39,26,28.15,-9.04,-0.74,-3.49,10:37:22,33.664665,-114.007446,484.7,0.06,17
351518,23.74,419.31,28,28.09,-9.34,-0.43,-3.59,10:37:23,33.664665,-114.007446,484.7,0.07,17
352519,23.73,419.48,23,28.13,-9.05,-0.83,-3.66,10:37:24,33.664665,-114.007446,484.7,0.02,17
353520,23.72,419.48,23,28.12,-8.75,0.01,-3.25,10:37:25,33.664665,-114.007446,484.7,0.03,17
354521,23.72,419.48,23,28.1,-9,0.13,-2.37,10:37:26,33.664665,-114.007446,484.7,0.01,17
355522,23.72,419.57,20,28.1,-9.5,-0.27,-3.64,10:37:27,33.664665,-114.007446,484.7,0.01,17
356523,23.73,419.65,21,28.1,-9.38,0.41,-2.13,10:37:28,33.664665,-114.007446,484.5,0.13,17
357524,23.72,419.65,20,28.13,-9.31,-0.03,-2.59,10:37:29,33.664665,-114.007446,484.5,0.22,17
358525,23.72,419.57,21,28.09,-9.73,0.4,-2.15,10:37:30,33.664665,-114.007446,484.5,0.29,17
359526,23.7,419.65,21,28.1,-9.38,0.37,-2.7,10:37:31,33.664665,-114.007446,484.5,0.17,17
360527,23.69,419.65,21,28.13,-9.18,0.21,-2.83,10:37:32,33.664665,-114.007446,484.7,0.06,17
361528,23.68,419.57,21,28.12,-9.82,-0.22,-2.94,10:37:33,33.664665,-114.007446,484.9,0.03,17
362529,23.66,419.57,21,28.12,-9.38,0.27,-2.73,10:37:34,33.664665,-114.007446,485,0.01,17
363530,23.65,419.65,21,28.16,-9.26,0.44,-2.95,10:37:35,33.664665,-114.007446,485,0.01,17
364531,23.65,419.65,21,28.12,-9.56,0.26,-2.92,10:37:36,33.664665,-114.007446,485.1,0.1,17
365532,23.64,419.65,21,28.14,-9.17,0.35,-3.02,10:37:37,33.664665,-114.007446,485.1,0.25,17
366533,23.64,419.65,21,28.1,-9.1,0.32,-2.9,10:37:38,33.664665,-114.007446,485.1,0.1,17
367534,23.64,419.65,20,28.14,-9.19,0.4,-2.76,10:37:39,33.664665,-114.007446,485.1,0.13,16
368535,23.64,419.57,21,28.12,-9.61,0.06,-1.95,10:37:40,33.664665,-114.007446,485.1,0.15,17
369536,23.63,419.57,26,28.11,-9.12,-0.58,-2.53,10:37:41,33.664665,-114.007446,485.2,0.12,17
370537,23.62,419.48,24,28.12,-10.33,-0.61,-1.28,10:37:42,33.664669,-114.007446,485.2,0.16,17
371538,23.61,419.39,29,28.1,-9.76,-2.34,-1.58,10:37:43,33.664669,-114.007446,485.2,0.33,17
372539,23.61,419.39,33,28.07,-9.18,-1.94,-3.1,10:37:44,33.664669,-114.007446,485.3,0.13,17
373540,23.6,419.39,31,28.13,-9.42,-2.06,-2.65,10:37:45,33.664669,-114.007446,485.3,0.21,16
374541,23.6,419.31,31,28.13,-9.23,-2.98,-3.51,10:37:46,33.664673,-114.007446,485.3,0.21,16
375543,23.6,419.39,26,28.15,-9.58,-1.73,-2.27,10:37:47,33.664673,-114.007446,485.3,0.13,15
376543,23.6,419.65,26,28.16,-9.15,-2.81,0.01,10:37:48,33.664673,-114.007446,485.3,0.13,16
377544,23.6,419.91,28,28.09,-9.94,-1.52,0.66,10:37:49,33.664673,-114.007446,485.3,0.49,16
378545,23.59,419.83,23,28.13,-9.38,-2.77,0.84,10:37:50,33.664669,-114.007446,485.3,0.22,16
379546,23.59,419.74,28,28.14,-9.29,-3.05,0.16,10:37:51,33.664669,-114.007446,485.4,0.08,16
380547,23.58,419.65,23,28.12,-9.04,-3.05,-0.32,10:37:52,33.664669,-114.007446,485.4,0.06,16
381548,23.55,419.83,30,28.13,-8.83,-3.52,-1.3,10:37:53,33.664669,-114.007446,485.4,0.06,17
382549,23.52,419.91,33,28.15,-9.07,-3.87,-1.7,10:37:54,33.664669,-114.007446,485.3,0.25,17
383550,23.5,420,33,28.16,-8.87,-3.64,-2.21,10:37:55,33.664669,-114.007446,485.2,0.1,16
384551,23.46,420,29,28.12,-9.04,-2.7,-0.99,10:37:56,33.664673,-114.007446,485.2,0.1,17
385552,23.43,420,40,28.12,-10.15,-2.13,1.42,10:37:57,33.664673,-114.007446,485.1,0.08,17
386553,23.41,419.91,29,28.11,-9.09,-2.46,3.98,10:37:58,33.664673,-114.007446,485.1,0.08,17
387554,23.39,419.65,26,28.12,-9.03,-1.71,3.17,10:37:59,33.664673,-114.007446,485.1,0.24,17
388555,23.36,419.65,24,28.12,-9.38,-2.02,1.74,10:38:00,33.664673,-114.007446,485.1,0.14,17
389556,23.32,419.65,14,28.12,-9.38,-2,2.29,10:38:01,33.664673,-114.007446,485.1,0.31,17
390557,23.29,419.57,15,28.08,-9.46,-2.1,2.53,10:38:02,33.664673,-114.007446,485.2,0.26,17
391558,23.26,419.48,13,28.13,-9.29,-2.4,3.43,10:38:03,33.664673,-114.007446,485.3,0.14,17
392559,23.25,419.57,4,28.13,-9.18,-2.41,3.41,10:38:04,33.664673,-114.007446,485.3,0.12,16
393560,23.24,419.39,6,28.12,-8.98,-1.92,3,10:38:05,33.664673,-114.007446,485.4,0.08,17
394561,23.22,419.05,6,28.11,-9.17,-1.92,3.5,10:38:06,33.664673,-114.007446,485.4,0.08,16
395562,23.23,418.87,10,28.12,-8.76,-2.04,2.51,10:38:07,33.664673,-114.007446,485.4,0.07,16
396563,23.23,418.7,5,28.11,-9.38,-2.02,3.06,10:38:08,33.664673,-114.007446,485.4,0.07,16
397564,23.23,418.7,10,28.1,-9.17,-1.71,3.2,10:38:09,33.664673,-114.007446,485.4,0.15,16
398566,23.22,418.61,11,28.11,-9.06,-1.79,3.03,10:38:10,33.664673,-114.007446,485.4,0.15,16
399566,23.22,418.53,5,28.14,-9.16,-1.26,2.65,10:38:11,33.664673,-114.007446,485.3,0.06,16
400567,23.22,418.61,11,28.08,-9.45,-2.01,3.26,10:38:12,33.664673,-114.007446,485.3,0.07,17
401568,23.22,418.53,8,28.09,-9.18,-1.73,2.98,10:38:13,33.664673,-114.007446,485.3,0.09,17
402569,23.23,418.44,6,28.1,-9.43,-1.65,2.76,10:38:14,33.664673,-114.007446,485.3,0.15,17
403570,23.25,418.53,10,28.1,-10.09,-2.19,2.57,10:38:15,33.664673,-114.007446,485.3,0.21,17
404571,23.25,418.61,8,28.1,-9.69,-1.48,2.88,10:38:16,33.664673,-114.007439,485.3,0.28,17
405572,23.23,418.7,9,28.11,-9.73,-1.13,2.71,10:38:17,33.664673,-114.007439,485.3,0.28,17
406573,23.22,418.87,6,28.12,-9.03,-1.27,2.45,10:38:18,33.664673,-114.007439,485.3,0.13,17
407574,23.21,418.96,42,28.14,-9.32,-1.96,3.3,10:38:19,33.664673,-114.007439,485.3,0.23,17
408575,23.2,419.05,42,28.15,-9.61,-1.38,3.06,10:38:20,33.664673,-114.007439,485.3,0.1,15
409576,23.19,419.05,42,28.1,-9.67,-1.31,3.11,10:38:21,33.664673,-114.007439,485.3,0.1,15
410577,23.19,419.13,42,28.16,-9.38,-1.65,3.06,10:38:22,33.664673,-114.007439,485.3,0.09,15
411578,23.19,419.13,40,28.09,-9.42,-1.42,2.89,10:38:23,33.664673,-114.007439,485.2,0.08,15
412579,23.2,419.05,38,28.12,-9.14,-1.68,3,10:38:24,33.664673,-114.007439,485.2,0.05,15
413580,23.2,418.7,42,28.1,-9.71,-2.24,3.4,10:38:25,33.664673,-114.007439,485.2,0.08,16
414581,23.19,418.79,42,28.12,-9.08,-0.61,3.52,10:38:26,33.664673,-114.007439,485.3,0.08,17
415582,23.17,419.05,0,28.09,-10.33,-0.68,2.06,10:38:27,33.664673,-114.007439,485.3,0.2,17
416583,23.15,418.96,91,28.11,-9.38,1.52,2.72,10:38:28,33.664673,-114.007439,485.2,0.14,17
417584,23.15,418.27,44,28.11,-8.98,1.11,3.43,10:38:29,33.664673,-114.007439,485.2,0.17,17
418585,23.17,416.27,45,28.09,-9.03,1.27,3.73,10:38:30,33.664673,-114.007439,485.2,0.06,17
419586,23.2,416.27,45,28.12,-9.09,1.23,3.76,10:38:31,33.664669,-114.007439,485.1,0.22,17
420587,23.24,416.36,84,28.15,-9.11,1.21,3.86,10:38:32,33.664673,-114.007439,485.2,0.14,17
421588,23.28,409,47,28.11,-8.53,1.02,3.76,10:38:33,33.664673,-114.007439,485.3,0.14,17
422589,23.33,403.02,47,28.13,-9,-0.68,4.11,10:38:34,33.664673,-114.007439,485.3,0.13,17
423590,23.39,399.99,45,28.15,-9.02,0.25,4.02,10:38:35,33.664669,-114.007439,485.3,0.14,17
424591,23.46,396.19,45,28.11,-9.07,0.12,4.02,10:38:36,33.664669,-114.007439,485.2,0.12,17
425592,23.51,391.34,45,28.13,-8.99,0.01,4.16,10:38:37,33.664669,-114.007439,485.3,0.06,17
426593,23.58,389.18,47,28.09,-9.07,-0.03,4.08,10:38:38,33.664669,-114.007439,485.3,0.05,17
427594,23.65,387.8,47,28.13,-9.2,0.28,3.96,10:38:39,33.664669,-114.007439,485.3,0.09,17
428595,23.72,387.63,47,28.13,-9.11,0.12,4.08,10:38:40,33.664669,-114.007439,485.3,0.06,17
429596,23.78,384.52,47,28.15,-9.03,0.12,4.12,10:38:41,33.664669,-114.007439,485.3,0.12,17
430597,23.84,389.27,19,28.13,-10.06,-0.26,2.37,10:38:42,33.664669,-114.007439,485.3,0.06,17
431598,23.91,392.47,103,28.12,-9.33,0.24,3.81,10:38:43,33.664669,-114.007439,485.2,0.07,17
432599,23.98,391.08,131,28.12,-8.42,0.2,4.48,10:38:44,33.664669,-114.007439,485.2,0.05,17
433600,24.06,379.85,135,28.15,-8.89,0.31,4.65,10:38:45,33.664669,-114.007439,485.2,0.02,17
434601,24.15,371.56,128,28.11,-8.67,0.36,4.85,10:38:46,33.664669,-114.007439,485.2,0.01,17
435602,24.24,329.97,141,28.12,-8.13,0.78,5.47,10:38:47,33.664669,-114.007439,485.2,0.02,17
436603,24.32,327.65,36,28.1,-8.75,0.56,4.87,10:38:48,33.664669,-114.007439,485.2,0.03,17
437604,24.42,339.43,29,28.08,-9.05,0.74,4.08,10:38:49,33.664669,-114.007439,485.2,0.03,17
438605,24.53,337.62,28,28.12,-9.25,0.22,3.9,10:38:50,33.664669,-114.007439,485.2,0.3,17
439606,24.64,335.73,23,28.12,-9.01,0.23,4.09,10:38:51,33.664669,-114.007439,485.2,0.29,17
440607,24.77,331.6,28,28.1,-8.93,0.12,4.01,10:38:52,33.664669,-114.007446,485.2,0.09,17
441608,24.89,333.41,23,28.09,-9.18,0.18,4.04,10:38:53,33.664669,-114.007446,485.2,0.1,17
442609,24.99,330.48,19,28.14,-9.08,0.43,4.02,10:38:54,33.664669,-114.007446,485.2,0.2,17
443610,25.08,329.8,16,28.15,-9.11,0.47,4,10:38:55,33.664669,-114.007446,485.2,0.12,17
444611,25.17,325.41,15,28.14,-9.1,0.33,4.07,10:38:56,33.664669,-114.007446,485.3,0.26,17
445612,25.24,312.88,15,28.12,-9.13,0.33,4.02,10:38:57,33.664669,-114.007446,485.3,0.25,17
446613,25.31,306.96,23,28.14,-9.17,0.2,4.14,10:38:58,33.664669,-114.007439,485.3,0.17,17
447614,25.39,304.47,16,28.1,-9.05,-0.01,3.9,10:38:59,33.664669,-114.007439,485.3,0.25,17
448615,25.48,313.05,14,28.13,-9.25,0.01,4.11,10:39:00,33.664669,-114.007439,485.3,0.18,17
449616,25.57,329.45,123,28.13,-8.76,-0.41,4.36,10:39:01,33.664669,-114.007439,485.3,0.21,17
450617,25.66,340.89,108,28.12,-9.22,-0.8,4.24,10:39:02,33.664669,-114.007439,485.3,0.1,17
451618,25.75,347.26,104,28.1,-9.08,-0.97,4.04,10:39:03,33.664669,-114.007439,485.3,0.09,17
452619,25.83,350.7,96,28.1,-9.2,-0.8,3.81,10:39:04,33.664669,-114.007439,485.3,0.13,17
453620,25.91,355.35,101,28.11,-9.2,-0.95,3.61,10:39:05,33.664669,-114.007439,485.3,0.21,16
454621,26,358.54,98,28.12,-9.15,-1.04,3.5,10:39:06,33.664669,-114.007439,485.3,0.15,16
455622,26.08,362.51,93,28.13,-9.23,-1.01,3.37,10:39:07,33.664669,-114.007439,485.3,0.24,16
456623,26.17,366.13,92,28.16,-9.19,-0.93,3.71,10:39:08,33.664669,-114.007439,485.3,0.46,17
457624,26.24,369.06,89,28.12,-9.31,-1.19,3.38,10:39:09,33.664665,-114.007446,485.3,0.44,17
458625,26.3,370.96,77,28.16,-9.41,-0.98,3.48,10:39:10,33.664665,-114.007446,485.3,0.39,17
459626,26.35,371.82,65,28.16,-9.2,-1.02,3.38,10:39:11,33.664661,-114.007446,485.3,0.32,17
460627,26.42,372.43,38,28.12,-9.36,-1.02,3.33,10:39:12,33.664665,-114.007446,485.3,0.1,17
461628,26.49,372.43,23,28.13,-9.35,-0.9,3.41,10:39:13,33.664661,-114.007446,485.3,0.18,17
462629,26.52,373.63,86,28.13,-9.34,-1.17,3.18,10:39:14,33.664661,-114.007446,485.3,0.32,17
463630,26.55,374.76,96,28.11,-9.39,-1.11,3.78,10:39:15,33.664661,-114.007446,485.3,0.08,17
464631,26.58,373.72,29,28.15,-8.96,-0.94,3.96,10:39:16,33.664665,-114.007446,485.3,0.46,16
465632,26.58,330.4,28,28.09,-8.82,1.15,4.44,10:39:17,33.664665,-114.007446,485.3,0.29,17
466633,26.6,308.59,30,28.1,-8.79,0.9,4.17,10:39:18,33.664665,-114.007446,485.3,0.08,17
467634,26.63,298.22,36,28.12,-8.63,1.15,4.36,10:39:19,33.664665,-114.007446,485.3,0.07,17
468635,26.67,318.11,30,28.14,-9.06,-0.09,4.49,10:39:20,33.664665,-114.007446,485.3,0.03,17
469636,26.7,327.22,36,28.14,-8.99,0.4,4.33,10:39:21,33.664665,-114.007446,485.3,0.05,17
470637,26.74,322.66,36,28.15,-9.13,0.31,4.19,10:39:22,33.664665,-114.007446,485.3,0.2,17
471638,26.77,327.99,38,28.12,-8.77,0.38,4.28,10:39:23,33.664665,-114.007446,485.3,0.2,17
472639,26.81,327.91,142,28.13,-8.84,0.58,3.59,10:39:24,33.664665,-114.007446,485.3,0.09,17
473640,26.83,349.07,87,28.12,-10.01,1.81,2.49,10:39:25,33.664665,-114.007446,485.3,0.05,17
474641,26.84,366.56,44,28.17,-10.11,2.16,1.28,10:39:26,33.664665,-114.007446,485.2,0.08,17
475642,26.84,379.68,49,28.14,-7.27,6.35,2.24,10:39:27,33.664665,-114.007446,485.2,0.59,17
476643,26.81,389.53,43,28.12,-7.26,4.73,1.37,10:39:28,33.664665,-114.007446,485.1,0.44,17
477644,26.77,396.71,35,28.15,-9.05,4.12,0.63,10:39:29,33.664661,-114.007446,484.9,0.52,17
478645,26.75,402.07,33,28.19,-8.68,4.4,-0.22,10:39:30,33.664661,-114.007446,484.6,0.38,17
479646,26.73,406.14,33,28.15,-8.69,4.41,-0.26,10:39:31,33.664661,-114.007446,484.5,0.36,17
480647,26.72,409.17,33,28.13,-8.69,4.41,-0.25,10:39:32,33.664661,-114.007446,484.5,0.13,17
481648,26.7,411.51,33,28.17,-8.69,4.4,-0.25,10:39:33,33.664661,-114.007439,484.6,0.13,17
482649,26.68,413.24,33,28.15,-8.69,4.41,-0.24,10:39:34,33.664661,-114.007439,484.6,0.08,17
483650,26.67,414.54,34,28.15,-8.7,4.4,-0.25,10:39:35,33.664661,-114.007439,484.6,0.08,17
484651,26.67,415.49,34,28.14,-8.69,4.41,-0.25,10:39:36,33.664661,-114.007439,484.6,0.09,17
485652,26.66,416.27,33,28.11,-8.7,4.4,-0.25,10:39:37,33.664661,-114.007439,484.6,0.13,17
486653,26.65,416.79,34,28.17,-8.69,4.4,-0.25,10:39:38,33.664661,-114.007439,484.5,0.09,17
487654,26.64,417.23,34,28.13,-8.69,4.41,-0.25,10:39:39,33.664661,-114.007439,484.5,0.08,17
488655,26.64,417.66,34,28.15,-8.69,4.41,-0.25,10:39:40,33.664661,-114.007439,484.5,0.08,17
489656,26.63,417.83,34,28.17,-8.69,4.4,-0.25,10:39:41,33.664665,-114.007439,484.5,0.03,17
490657,26.61,417.92,34,28.14,-8.7,4.41,-0.24,10:39:42,33.664665,-114.007439,484.5,0.1,17
491658,26.59,417.92,34,28.15,-8.7,4.4,-0.24,10:39:43,33.664665,-114.007439,484.5,0.15,17
492659,26.55,418.09,35,28.12,-8.69,4.4,-0.24,10:39:44,33.664665,-114.007439,484.5,0.12,17
493660,26.52,418.18,34,28.12,-8.69,4.41,-0.26,10:39:45,33.664665,-114.007439,484.5,0.15,17
494661,26.5,418.18,34,28.14,-8.69,4.4,-0.24,10:39:46,33.664665,-114.007439,484.5,0.01,17
495662,26.48,418.35,34,28.14,-8.69,4.4,-0.25,10:39:47,33.664665,-114.007439,484.6,0.16,18
496663,26.45,418.35,35,28.12,-8.7,4.41,-0.24,10:39:48,33.664665,-114.007439,484.5,0.16,18
497664,26.42,418.44,34,28.14,-8.7,4.4,-0.24,10:39:49,33.664665,-114.007439,484.5,0.05,18
498665,26.39,418.44,34,28.12,-8.7,4.4,-0.24,10:39:50,33.664665,-114.007439,484.5,0.09,18
499666,26.38,418.44,34,28.15,-8.7,4.4,-0.24,10:39:51,33.664665,-114.007439,484.5,0.15,18
500667,26.37,418.53,34,28.17,-8.69,4.41,-0.25,10:39:52,33.664665,-114.007439,484.5,0.14,18
501668,26.36,418.53,34,28.14,-8.69,4.41,-0.25,10:39:53,33.664665,-114.007439,484.5,0.02,18
502669,26.35,418.53,35,28.18,-8.69,4.39,-0.25,10:39:54,33.664665,-114.007439,484.5,0.18,18
503670,26.33,418.53,34,28.17,-8.7,4.41,-0.25,10:39:55,33.664665,-114.007439,484.5,0.02,18
504671,26.32,418.53,34,28.14,-8.7,4.41,-0.25,10:39:56,33.664665,-114.007439,484.5,0.08,18
505672,26.31,418.53,35,28.21,-8.69,4.4,-0.25,10:39:57,33.664665,-114.007439,484.5,0.13,18
506673,26.3,418.53,34,28.18,-8.7,4.4,-0.25,10:39:58,33.664665,-114.007439,484.6,0.09,18
507674,26.29,418.53,34,28.14,-8.7,4.4,-0.25,10:39:59,33.664665,-114.007439,484.6,0.1,18
508675,26.28,418.53,34,28.2,-8.71,4.41,-0.25,10:40:00,33.664665,-114.007439,484.6,0.18,18
509676,26.28,418.44,34,28.18,-8.7,4.41,-0.23,10:40:01,33.664665,-114.007439,484.6,0.2,18
510677,26.27,418.53,34,28.16,-8.69,4.4,-0.26,10:40:02,33.664665,-114.007439,484.6,0.05,18
511678,26.26,418.53,35,28.2,-8.7,4.41,-0.25,10:40:03,33.664665,-114.007439,484.6,0.15,18
512679,26.25,418.61,35,28.19,-8.69,4.4,-0.25,10:40:04,33.664665,-114.007439,484.7,0.62,18
513680,26.25,418.61,35,28.16,-8.7,4.4,-0.25,10:40:05,33.664665,-114.007439,484.4,0.29,18
514681,26.24,418.7,35,28.23,-8.7,4.4,-0.24,10:40:06,33.664665,-114.007439,484.3,0.36,18
515682,26.23,418.7,35,28.21,-8.69,4.4,-0.24,10:40:07,33.664665,-114.007439,484.3,0.28,18
516683,26.23,418.7,35,28.2,-8.7,4.4,-0.24,10:40:08,33.664665,-114.007439,484.3,0.29,18
517684,26.23,418.61,34,28.18,-8.7,4.4,-0.25,10:40:09,33.664665,-114.007439,484.3,0.21,17
518685,26.23,418.7,35,28.15,-8.69,4.4,-0.24,10:40:10,33.664665,-114.007439,484.4,0.43,17
519686,26.23,418.7,35,28.19,-8.69,4.41,-0.25,10:40:11,33.664665,-114.007439,484.4,0.32,17
520687,26.24,418.7,35,28.18,-8.7,4.4,-0.26,10:40:12,33.664665,-114.007439,484.5,0.17,17
521688,26.24,418.7,35,28.19,-8.7,4.4,-0.25,10:40:13,33.664665,-114.007439,484.5,0.26,17
522689,26.24,418.79,35,28.18,-8.7,4.4,-0.25,10:40:14,33.664665,-114.007439,484.5,0.21,16
523690,26.22,418.79,35,28.14,-8.69,4.4,-0.25,10:40:15,33.664665,-114.007439,484.5,0.24,18
524691,26.21,418.79,35,28.16,-8.7,4.4,-0.25,10:40:16,33.664665,-114.007439,484.5,0.31,18
525692,26.2,418.87,35,28.19,-8.7,4.41,-0.24,10:40:17,33.664665,-114.007439,484.5,0.17,18
526693,26.19,418.87,35,28.19,-8.7,4.4,-0.25,10:40:18,33.664665,-114.007439,484.5,0.1,17
527694,26.18,418.87,35,28.17,-8.7,4.4,-0.24,10:40:19,33.664665,-114.007439,484.6,0.1,18
528695,26.17,418.87,35,28.21,-8.7,4.41,-0.25,10:40:20,33.664665,-114.007439,484.5,0.05,18
529696,26.16,418.79,35,28.17,-8.71,4.41,-0.24,10:40:21,33.664665,-114.007439,484.5,0.03,18
530697,26.15,418.79,35,28.19,-8.7,4.41,-0.23,10:40:22,33.664665,-114.007439,484.5,0.05,18
531698,26.14,418.79,34,28.2,-8.7,4.4,-0.24,10:40:23,33.664665,-114.007439,484.5,0.07,18
532699,26.15,418.7,35,28.16,-8.7,4.4,-0.25,10:40:24,33.664665,-114.007439,484.5,0.24,18
533700,26.14,418.7,34,28.25,-8.7,4.41,-0.24,10:40:25,33.664665,-114.007439,484.5,0.23,18
534701,26.14,418.7,34,28.19,-8.69,4.4,-0.25,10:40:26,33.664661,-114.007439,484.5,0.09,18
535702,26.14,418.61,34,28.2,-8.7,4.4,-0.25,10:40:27,33.664661,-114.007439,484.5,0.17,18
536703,26.13,418.53,33,28.21,-8.69,4.4,-0.24,10:40:28,33.664661,-114.007439,484.5,0.21,18
537704,26.11,418.44,34,28.24,-8.69,4.41,-0.24,10:40:29,33.664661,-114.007439,484.4,0.14,18
538705,26.09,418.44,34,28.25,-8.69,4.41,-0.25,10:40:30,33.664661,-114.007439,484.4,0.21,18
539706,26.09,418.44,34,28.19,-8.68,4.41,-0.24,10:40:31,33.664661,-114.007439,484.4,0.15,18
540707,26.08,418.44,35,28.2,-8.69,4.41,-0.24,10:40:32,33.664661,-114.007439,484.4,0.06,18
541708,26.08,418.53,34,28.2,-8.7,4.41,-0.25,10:40:33,33.664661,-114.007439,484.4,0.18,18
542709,26.08,418.53,35,28.21,-8.7,4.4,-0.25,10:40:34,33.664661,-114.007439,484.4,0.08,18
543710,26.07,418.61,35,28.26,-8.69,4.4,-0.25,10:40:35,33.664661,-114.007439,484.4,0.08,18
544711,26.08,418.61,34,28.2,-8.69,4.4,-0.24,10:40:36,33.664661,-114.007439,484.4,0.03,18
545712,26.08,418.61,34,28.27,-8.7,4.4,-0.24,10:40:37,33.664658,-114.007439,484.3,0.1,18
546713,26.08,418.61,35,28.21,-8.7,4.4,-0.24,10:40:38,33.664658,-114.007439,484.3,0.06,18
547714,26.09,418.61,35,28.21,-8.69,4.41,-0.25,10:40:39,33.664658,-114.007439,484.3,0.09,18
548715,26.1,418.61,35,28.22,-8.7,4.4,-0.24,10:40:40,33.664658,-114.007439,484.3,0.03,18
549716,26.1,418.61,35,28.21,-8.69,4.4,-0.25,10:40:41,33.664658,-114.007439,484.3,0.09,18
550717,26.1,418.61,35,28.27,-8.7,4.4,-0.25,10:40:42,33.664658,-114.007439,484.3,0.09,18
551718,26.09,418.61,34,28.23,-8.7,4.41,-0.25,10:40:43,33.664658,-114.007439,484.3,0.06,18
552719,26.08,418.61,34,28.18,-8.7,4.41,-0.24,10:40:44,33.664658,-114.007439,484.4,0.07,18
553720,26.08,418.7,35,28.24,-8.7,4.4,-0.25,10:40:45,33.664658,-114.007439,484.4,0.03,18
554721,26.08,418.7,35,28.2,-8.69,4.41,-0.24,10:40:46,33.664658,-114.007439,484.4,0.09,18
555722,26.09,418.79,35,28.3,-8.7,4.41,-0.25,10:40:47,33.664658,-114.007439,484.4,0.09,18
556723,26.09,418.7,34,28.25,-8.69,4.41,-0.24,10:40:48,33.664658,-114.007439,484.4,0.1,18
557724,26.08,418.61,34,28.24,-8.7,4.4,-0.25,10:40:49,33.664658,-114.007439,484.4,0.07,18
558725,26.07,418.53,35,28.21,-8.7,4.41,-0.25,10:40:50,33.664658,-114.007439,484.4,0.05,18
559726,26.06,418.53,34,28.27,-8.7,4.41,-0.25,10:40:51,33.664658,-114.007439,484.4,0.02,18
560727,26.06,418.53,35,28.23,-8.69,4.4,-0.25,10:40:52,33.664658,-114.007439,484.4,0.07,18
561728,26.06,418.44,34,28.23,-8.69,4.41,-0.24,10:40:53,33.664658,-114.007439,484.4,0.15,18
562729,26.05,418.44,35,28.25,-8.7,4.41,-0.24,10:40:54,33.664658,-114.007439,484.4,0.05,18
563730,26.04,418.53,35,28.2,-8.7,4.41,-0.24,10:40:55,33.664658,-114.007439,484.4,0.03,18
564731,26.04,418.53,35,28.28,-8.68,4.4,-0.26,10:40:56,33.664658,-114.007439,484.5,0.13,18
565732,26.04,418.44,34,28.25,-8.7,4.41,-0.24,10:40:57,33.664658,-114.007439,484.4,0.15,18
566733,26.04,418.53,34,28.25,-8.7,4.4,-0.24,10:40:58,33.664658,-114.007439,484.4,0.12,18
567734,26.04,418.53,35,28.27,-8.7,4.4,-0.25,10:40:59,33.664658,-114.007439,484.4,0.12,18
568735,26.03,418.53,35,28.23,-8.69,4.4,-0.24,10:41:00,33.664658,-114.007439,484.4,0.05,18
569736,26.01,418.44,35,28.22,-8.69,4.4,-0.25,10:41:01,33.664658,-114.007439,484.4,0.12,18
570737,25.99,418.35,35,28.27,-8.7,4.42,-0.24,10:41:02,33.664658,-114.007439,484.4,0.09,18
571738,25.96,418.35,35,28.28,-8.69,4.4,-0.25,10:41:03,33.664658,-114.007439,484.4,0.13,18
572739,25.94,418.27,34,28.32,-8.68,4.4,-0.25,10:41:04,33.664658,-114.007439,484.4,0.09,18
573740,25.91,418.35,34,28.21,-8.7,4.41,-0.25,10:41:05,33.664658,-114.007439,484.4,0.08,18
574741,25.88,418.27,35,28.26,-8.69,4.4,-0.25,10:41:06,33.664658,-114.007439,484.4,0.07,18
575742,25.86,418.35,35,28.27,-8.7,4.41,-0.24,10:41:07,33.664658,-114.007439,484.4,0.03,18
576743,25.85,418.27,35,28.3,-8.69,4.4,-0.26,10:41:08,33.664658,-114.007439,484.4,0.03,18
577744,25.83,418.44,35,28.29,-8.7,4.4,-0.25,10:41:09,33.664658,-114.007439,484.4,0.02,18
578745,25.81,418.35,35,28.26,-8.7,4.4,-0.25,10:41:10,33.664658,-114.007439,484.4,0.02,18
579746,25.79,418.35,35,28.25,-8.69,4.41,-0.25,10:41:11,33.664658,-114.007439,484.4,0.16,18
580747,25.77,418.35,35,28.28,-8.69,4.41,-0.24,10:41:12,33.664658,-114.007439,484.4,0.12,18
581748,25.75,418.35,35,28.26,-8.69,4.42,-0.25,10:41:13,33.664658,-114.007439,484.4,0.16,18
582749,25.73,418.35,34,28.23,-8.69,4.41,-0.24,10:41:14,33.664658,-114.007439,484.5,0.02,18
583750,25.72,418.35,34,28.27,-8.69,4.41,-0.25,10:41:15,33.664658,-114.007439,484.4,0.09,18
584751,25.71,418.35,34,28.25,-8.71,4.4,-0.24,10:41:16,33.664658,-114.007439,484.4,0.15,18
585752,25.71,418.27,34,28.25,-8.69,4.41,-0.25,10:41:17,33.664658,-114.007439,484.5,0.08,18
586753,25.7,418.27,35,28.22,-8.7,4.4,-0.24,10:41:18,33.664658,-114.007439,484.4,0.16,18
587754,25.68,418.27,35,28.26,-8.69,4.41,-0.24,10:41:19,33.664658,-114.007439,484.4,0.09,18
588755,25.65,418.35,34,28.32,-8.68,4.4,-0.24,10:41:20,33.664658,-114.007439,484.4,0.09,18
589756,25.63,418.44,30,28.29,-8.7,4.41,-0.24,10:41:21,33.664658,-114.007439,484.4,0.14,18
590757,25.61,418.44,31,28.29,-8.7,4.4,-0.24,10:41:22,33.664658,-114.007439,484.4,0.05,18
591758,25.6,418.53,30,28.34,-8.7,4.41,-0.25,10:41:23,33.664658,-114.007439,484.4,0.05,17
592759,25.59,418.53,31,28.3,-8.7,4.4,-0.25,10:41:24,33.664658,-114.007439,484.4,0.01,18
593760,25.58,418.61,30,28.3,-8.69,4.41,-0.25,10:41:25,33.664658,-114.007439,484.4,0.02,18
594761,25.57,418.61,29,28.25,-8.7,4.41,-0.26,10:41:26,33.664658,-114.007439,484.4,0.02,18
595762,25.55,418.61,29,28.28,-8.69,4.4,-0.24,10:41:27,33.664658,-114.007439,484.4,0.1,18
596763,25.55,418.7,29,28.28,-8.7,4.4,-0.25,10:41:28,33.664658,-114.007439,484.3,0.14,18
597764,25.54,418.7,30,28.31,-8.69,4.41,-0.24,10:41:29,33.664658,-114.007439,484.3,0.05,18
598765,25.54,418.61,35,28.25,-8.69,4.41,-0.25,10:41:30,33.664658,-114.007439,484.3,0.07,18
599766,25.53,418.53,35,28.3,-8.69,4.4,-0.24,10:41:31,33.664658,-114.007439,484.2,0.06,18
600767,25.52,418.53,34,28.31,-8.69,4.4,-0.25,10:41:32,33.664658,-114.007439,484.3,0.12,18
601768,25.48,418.53,35,28.34,-8.7,4.4,-0.25,10:41:33,33.664658,-114.007439,484.2,0.36,18
602769,25.46,418.53,35,28.3,-8.7,4.41,-0.25,10:41:34,33.664658,-114.007439,484.2,0.02,17
603770,25.44,418.53,34,28.31,-8.69,4.4,-0.25,10:41:35,33.664658,-114.007439,484.2,0.06,18
604771,25.43,418.53,33,28.3,-8.68,4.41,-0.25,10:41:36,33.664658,-114.007439,484.2,0.08,18
605772,25.41,418.53,33,28.33,-8.7,4.41,-0.24,10:41:37,33.664658,-114.007439,484.2,0.1,18
606773,25.39,418.61,34,28.32,-8.69,4.4,-0.24,10:41:38,33.664658,-114.007439,484.2,0.08,18
607774,25.37,418.53,33,28.29,-8.7,4.4,-0.24,10:41:39,33.664658,-114.007439,484.2,0.16,18
608775,25.35,418.61,33,28.3,-8.7,4.4,-0.24,10:41:40,33.664658,-114.007439,484.2,0.06,18
609776,25.33,418.61,33,28.29,-8.69,4.4,-0.25,10:41:41,33.664658,-114.007439,484.2,0.02,18
610777,25.32,418.53,33,28.29,-8.69,4.39,-0.24,10:41:42,33.664658,-114.007439,484.2,0.1,18
611778,25.32,418.53,33,28.31,-8.7,4.4,-0.26,10:41:43,33.664654,-114.007439,484.2,0.26,18
612779,25.32,418.53,31,28.32,-8.71,4.41,-0.25,10:41:44,33.664654,-114.007439,484.2,0.12,18
613780,25.33,418.53,33,28.32,-8.7,4.4,-0.26,10:41:45,33.664654,-114.007439,484.1,0.08,18
614781,25.34,418.53,33,28.3,-8.7,4.4,-0.24,10:41:46,33.664654,-114.007439,484.1,0.22,18
615782,25.34,418.53,33,28.29,-8.7,4.41,-0.24,10:41:47,33.664654,-114.007439,484.2,0.09,18
616783,25.35,418.53,33,28.32,-8.69,4.41,-0.24,10:41:48,33.664654,-114.007439,484.3,0.07,18
617784,25.35,418.53,33,28.32,-8.69,4.41,-0.24,10:41:49,33.664654,-114.007439,484.3,0.1,18
618785,25.35,418.44,33,28.32,-8.7,4.41,-0.25,10:41:50,33.664654,-114.007439,484.3,0.07,18
619786,25.33,418.44,33,28.31,-8.7,4.42,-0.25,10:41:51,33.664658,-114.007439,484.3,0.17,18
620787,25.3,418.53,33,28.32,-8.69,4.4,-0.25,10:41:52,33.664658,-114.007439,484.3,0.26,18
621788,25.27,418.53,34,28.32,-8.69,4.4,-0.25,10:41:53,33.664658,-114.007439,484.3,0.24,18
622789,25.25,418.61,31,28.32,-8.69,4.4,-0.23,10:41:54,33.664658,-114.007439,484.3,0.2,18
623790,25.23,418.53,31,28.36,-8.7,4.41,-0.25,10:41:55,33.664658,-114.007439,484.3,0.09,18
624791,25.22,418.61,31,28.32,-8.69,4.39,-0.26,10:41:56,33.664658,-114.007439,484.3,0.06,18
625792,25.2,418.79,33,28.32,-8.7,4.41,-0.25,10:41:57,33.664658,-114.007439,484.3,0.03,18
626793,25.19,418.61,33,28.33,-8.7,4.4,-0.25,10:41:58,33.664658,-114.007439,484.3,0.25,18
627794,25.18,418.61,33,28.35,-8.69,4.4,-0.24,10:41:59,33.664658,-114.007439,484.3,0.06,18
628795,25.16,418.44,34,28.37,-8.69,4.4,-0.24,10:42:00,33.664658,-114.007439,484.3,0.08,18
629796,25.14,418.44,34,28.34,-8.7,4.41,-0.25,10:42:01,33.664658,-114.007439,484.2,0.07,18
630797,25.12,418.35,33,28.35,-8.69,4.4,-0.24,10:42:02,33.664658,-114.007439,484.3,0.09,18
631798,25.08,418.53,33,28.34,-8.7,4.41,-0.24,10:42:03,33.664654,-114.007439,484.3,0.08,18
632799,25.06,418.53,34,28.34,-8.7,4.41,-0.23,10:42:04,33.664654,-114.007439,484.3,0.05,18
633800,25.04,418.53,34,28.36,-8.7,4.4,-0.24,10:42:05,33.664654,-114.007439,484.3,0.08,18
634801,25.03,418.61,34,28.36,-8.7,4.4,-0.25,10:42:06,33.664654,-114.007439,484.3,0.09,18
635802,25.01,418.7,35,28.32,-8.69,4.4,-0.25,10:42:07,33.664654,-114.007439,484.2,0.07,18
636803,24.97,418.79,34,28.37,-8.7,4.41,-0.25,10:42:08,33.664654,-114.007439,484.3,0.05,18
637804,24.95,418.79,34,28.35,-8.7,4.4,-0.24,10:42:09,33.664654,-114.007439,484.3,0.23,18
638805,24.94,418.87,30,28.36,-8.7,4.41,-0.25,10:42:10,33.664654,-114.007439,484.3,0.1,18
639806,24.94,418.96,29,28.37,-8.7,4.4,-0.24,10:42:11,33.664654,-114.007439,484.3,0.07,18
640807,24.93,418.96,33,28.34,-8.7,4.4,-0.24,10:42:12,33.664654,-114.007439,484.3,0.26,18
641808,24.91,418.96,33,28.33,-8.7,4.41,-0.24,10:42:13,33.664654,-114.007439,484.3,0.15,18
642809,24.9,418.96,34,28.34,-8.7,4.41,-0.25,10:42:14,33.664654,-114.007439,484.3,0.18,18
643810,24.88,418.96,33,28.37,-8.69,4.41,-0.24,10:42:15,33.664654,-114.007439,484.2,0.03,18
644811,24.87,418.96,33,28.36,-8.7,4.4,-0.25,10:42:16,33.664654,-114.007439,484.2,0.03,18
645812,24.86,418.96,31,28.34,-8.7,4.41,-0.24,10:42:17,33.664654,-114.007439,484.3,0.14,18
646813,24.84,419.05,31,28.32,-8.69,4.4,-0.25,10:42:18,33.664654,-114.007439,484.4,0.03,18
647814,24.83,418.96,33,28.4,-8.7,4.41,-0.25,10:42:19,33.664654,-114.007439,484.4,0.2,18
648815,24.8,418.96,33,28.36,-8.69,4.4,-0.24,10:42:20,33.664654,-114.007439,484.3,0.08,18
649816,24.78,418.96,31,28.33,-8.68,4.41,-0.24,10:42:21,33.664654,-114.007439,484.3,0.13,18
650817,24.78,419.05,33,28.36,-8.7,4.41,-0.23,10:42:22,33.664654,-114.007439,484.3,0.15,18
651818,24.77,419.05,33,28.36,-8.69,4.41,-0.24,10:42:23,33.664654,-114.007439,484.3,0.08,18
652819,24.75,418.96,33,28.38,-8.69,4.39,-0.24,10:42:24,33.664654,-114.007439,484.3,0.09,18
653820,24.73,419.05,33,28.36,-8.7,4.41,-0.25,10:42:25,33.664654,-114.007439,484.4,0.02,18
654821,24.7,419.05,33,28.37,-8.7,4.4,-0.24,10:42:26,33.664654,-114.007439,484.3,0.08,18
655822,24.68,419.13,34,28.34,-8.7,4.41,-0.25,10:42:27,33.664654,-114.007439,484.3,0.06,18
656823,24.68,419.13,33,28.34,-8.69,4.4,-0.24,10:42:28,33.664654,-114.007439,484.3,0.07,18
657824,24.67,419.13,25,28.37,-8.7,4.4,-0.25,10:42:29,33.664654,-114.007439,484.3,0.03,18
658825,24.66,419.39,24,28.34,-8.7,4.4,-0.25,10:42:30,33.66465,-114.007439,484.3,0.03,18
659826,24.64,419.39,24,28.37,-8.7,4.41,-0.25,10:42:31,33.66465,-114.007439,484.3,0.2,18
660827,24.62,419.39,23,28.37,-8.7,4.41,-0.24,10:42:32,33.664654,-114.007439,484.4,0.22,18
661828,24.6,419.39,29,28.38,-8.69,4.4,-0.25,10:42:33,33.664654,-114.007439,484.4,0.15,18
662829,24.56,419.39,28,28.34,-8.7,4.41,-0.26,10:42:34,33.66465,-114.007439,484.3,0.38,18
663830,24.52,419.31,28,28.38,-8.69,4.41,-0.24,10:42:35,33.664654,-114.007439,484.3,0.2,17
664831,24.5,419.22,28,28.41,-8.7,4.41,-0.24,10:42:36,33.664654,-114.007446,484.3,0.12,17
665832,24.48,419.22,29,28.36,-8.7,4.41,-0.25,10:42:37,33.664654,-114.007446,484.3,0.02,17
666833,24.46,419.31,29,28.38,-8.7,4.4,-0.24,10:42:38,33.66465,-114.007446,484.3,0.02,17
667834,24.44,419.13,29,28.37,-8.7,4.41,-0.24,10:42:39,33.66465,-114.007446,484.3,0.1,17
668835,24.43,419.13,29,28.39,-8.69,4.41,-0.24,10:42:40,33.66465,-114.007446,484.3,0.01,17
669836,24.42,419.13,29,28.42,-8.69,4.4,-0.25,10:42:41,33.66465,-114.007446,484.3,0.02,17
670837,24.42,419.13,28,28.34,-8.7,4.41,-0.23,10:42:42,33.66465,-114.007446,484.2,0.03,17
671838,24.42,419.05,29,28.39,-8.7,4.4,-0.24,10:42:43,33.66465,-114.007446,484.2,0.29,17
672839,24.41,419.05,28,28.37,-8.7,4.4,-0.24,10:42:44,33.664654,-114.007446,484.2,0.13,17
673840,24.4,418.87,25,28.39,-8.69,4.42,-0.25,10:42:45,33.664654,-114.007446,484.2,0.12,17
674841,24.39,418.87,24,28.41,-8.7,4.4,-0.24,10:42:46,33.664654,-114.007446,484.2,0.14,17
675842,24.38,418.96,24,28.39,-8.7,4.41,-0.26,10:42:47,33.664654,-114.007446,484.2,0.12,17
676843,24.38,419.05,23,28.42,-8.69,4.41,-0.25,10:42:48,33.664654,-114.007446,484.2,0.1,17
677844,24.38,418.96,23,28.38,-8.7,4.4,-0.25,10:42:49,33.664654,-114.007446,484.3,0.08,17
678845,24.37,418.87,23,28.4,-8.7,4.4,-0.25,10:42:50,33.664654,-114.007446,484.3,0.1,18
679846,24.36,418.87,24,28.41,-8.68,4.4,-0.24,10:42:51,33.664654,-114.007446,484.3,0.1,18
680847,24.36,418.96,25,28.38,-8.7,4.4,-0.24,10:42:52,33.664654,-114.007446,484.3,0.14,18
681848,24.36,418.96,24,28.41,-8.7,4.4,-0.24,10:42:53,33.66465,-114.007446,484.3,0.13,18
682849,24.37,418.96,23,28.39,-8.7,4.4,-0.25,10:42:54,33.66465,-114.007446,484.3,0.13,18
683850,24.37,418.87,24,28.4,-8.7,4.4,-0.24,10:42:55,33.66465,-114.007446,484.3,0.05,17
684851,24.36,418.7,24,28.37,-8.7,4.41,-0.25,10:42:56,33.66465,-114.007446,484.2,0.03,18
685852,24.35,418.61,23,28.43,-8.7,4.4,-0.24,10:42:57,33.66465,-114.007446,484.2,0.03,18
686853,24.35,418.53,24,28.37,-8.7,4.41,-0.24,10:42:58,33.66465,-114.007446,484.2,0.02,18
687854,24.35,418.53,24,28.4,-8.7,4.4,-0.25,10:42:59,33.66465,-114.007446,484.2,0.02,18
688855,24.35,418.53,25,28.39,-8.7,4.4,-0.25,10:43:00,33.66465,-114.007446,484.2,0.02,18
689856,24.35,418.44,25,28.42,-8.7,4.4,-0.24,10:43:01,33.66465,-114.007446,484.1,0.01,18
690857,24.34,418.53,26,28.41,-8.69,4.4,-0.24,10:43:02,33.66465,-114.007446,484.1,0.02,18
691858,24.34,418.44,25,28.47,-8.7,4.4,-0.24,10:43:03,33.66465,-114.007446,484.1,0.23,18
692859,24.33,418.53,25,28.39,-8.7,4.41,-0.24,10:43:04,33.66465,-114.007446,484.1,0.33,18
693860,24.32,418.53,24,28.45,-8.69,4.4,-0.25,10:43:05,33.66465,-114.007446,484.1,0.2,18
694861,24.32,418.44,33,28.41,-8.7,4.4,-0.25,10:43:06,33.66465,-114.007446,484.1,0.21,18
695862,24.33,418.35,31,28.41,-8.71,4.4,-0.25,10:43:07,33.664646,-114.007446,484.1,0.77,18
696863,24.34,418.27,31,28.45,-8.7,4.41,-0.25,10:43:08,33.664646,-114.007446,484.1,0.21,18
697864,24.35,418.18,25,28.43,-8.7,4.4,-0.24,10:43:09,33.664646,-114.007446,484,0.47,18
698865,24.36,418.18,33,28.44,-8.69,4.41,-0.24,10:43:10,33.664642,-114.007446,484.1,0.24,18
699866,24.37,418.27,31,28.44,-8.7,4.4,-0.24,10:43:11,33.664642,-114.007446,484.1,0.09,18
700867,24.39,418.18,31,28.44,-8.69,4.41,-0.25,10:43:12,33.664642,-114.007446,484,0.07,18
701868,24.4,418.35,31,28.41,-8.7,4.4,-0.24,10:43:13,33.664642,-114.007446,484,0.16,18
702869,24.41,418.35,33,28.46,-8.7,4.4,-0.25,10:43:14,33.664642,-114.007446,484,0.03,18
703870,24.42,418.35,33,28.42,-8.69,4.4,-0.25,10:43:15,33.664642,-114.007446,484,0.1,18
704871,24.43,418.35,33,28.47,-8.7,4.41,-0.25,10:43:16,33.664642,-114.007446,484,0.08,18
705872,24.44,418.44,33,28.48,-8.69,4.4,-0.24,10:43:17,33.664642,-114.007446,484,0.08,18
706873,24.44,418.35,33,28.43,-8.7,4.41,-0.24,10:43:18,33.664642,-114.007446,484,0.12,18
707874,24.45,418.35,34,28.46,-8.7,4.4,-0.24,10:43:19,33.664642,-114.007446,483.9,0.12,18
708875,24.46,418.35,33,28.43,-8.69,4.41,-0.25,10:43:20,33.664642,-114.007446,483.9,0.24,18
709876,24.47,418.35,31,28.5,-8.69,4.41,-0.24,10:43:21,33.664642,-114.007446,483.9,0.12,18
710877,24.48,418.44,31,28.41,-8.69,4.4,-0.26,10:43:22,33.664639,-114.007446,483.9,0.18,18
711878,24.49,418.44,31,28.51,-8.69,4.4,-0.23,10:43:23,33.664639,-114.007446,483.9,0.31,18
712879,24.5,418.53,31,28.48,-8.69,4.4,-0.25,10:43:24,33.664639,-114.007446,483.8,0.1,18
713880,24.51,418.44,31,28.45,-8.7,4.41,-0.24,10:43:25,33.664639,-114.007446,483.8,0.22,18
714881,24.52,418.53,33,28.45,-8.7,4.4,-0.24,10:43:26,33.664639,-114.007446,483.8,0.29,18
715882,24.54,418.53,33,28.44,-8.69,4.41,-0.24,10:43:27,33.664639,-114.007446,483.8,0.07,18
716883,24.55,418.53,34,28.46,-8.69,4.4,-0.25,10:43:28,33.664639,-114.007446,483.7,0.07,18
717884,24.56,418.44,33,28.49,-8.7,4.4,-0.26,10:43:29,33.664639,-114.007446,483.7,0.15,18
718885,24.56,418.35,33,28.46,-8.7,4.4,-0.24,10:43:30,33.664639,-114.007446,483.7,0.14,18
719886,24.57,418.35,33,28.46,-8.7,4.4,-0.24,10:43:31,33.664639,-114.007446,483.7,0.07,18
720887,24.59,418.44,33,28.47,-8.7,4.4,-0.24,10:43:32,33.664639,-114.007446,483.7,0.06,18
721888,24.61,418.53,34,28.44,-8.69,4.4,-0.25,10:43:33,33.664639,-114.007446,483.7,0.05,18
722889,24.61,418.53,34,28.52,-8.69,4.4,-0.25,10:43:34,33.664639,-114.007446,483.7,0.25,18
723890,24.61,418.44,33,28.56,-8.7,4.41,-0.23,10:43:35,33.664639,-114.007439,483.7,0.21,18
724891,24.61,418.44,33,28.49,-8.7,4.41,-0.24,10:43:36,33.664639,-114.007446,483.7,0.07,18
725892,24.61,418.53,33,28.5,-8.7,4.4,-0.24,10:43:37,33.664639,-114.007446,483.7,0.05,18
726893,24.6,418.53,34,28.48,-8.7,4.41,-0.25,10:43:38,33.664639,-114.007446,483.7,0.05,18
727894,24.6,418.61,30,28.44,-8.7,4.4,-0.24,10:43:39,33.664639,-114.007446,483.7,0.16,18
728895,24.6,418.61,33,28.46,-8.69,4.41,-0.24,10:43:40,33.664639,-114.007446,483.7,0.94,18
729896,24.61,418.7,33,28.49,-8.7,4.41,-0.24,10:43:41,33.664639,-114.007446,483.6,0.37,18
730897,24.61,418.7,34,28.52,-8.7,4.4,-0.24,10:43:42,33.664635,-114.007446,483.6,0.18,18
731898,24.62,418.61,34,28.53,-8.7,4.4,-0.24,10:43:43,33.664635,-114.007446,483.6,0.17,18
732899,24.63,418.7,34,28.5,-8.69,4.4,-0.24,10:43:44,33.664635,-114.007446,483.6,0.12,18
733900,24.64,418.7,34,28.51,-8.69,4.41,-0.24,10:43:45,33.664635,-114.007446,483.6,0.14,18
734901,24.64,418.79,34,28.44,-8.7,4.4,-0.25,10:43:46,33.664635,-114.007446,483.6,0.14,18
735902,24.65,418.79,34,28.47,-8.7,4.4,-0.25,10:43:47,33.664635,-114.007446,483.6,0.12,18
736903,24.66,418.7,33,28.48,-8.7,4.4,-0.25,10:43:48,33.664635,-114.007446,483.6,0.12,18
737904,24.67,418.7,34,28.55,-8.69,4.39,-0.24,10:43:49,33.664635,-114.007446,483.6,0.14,18
738905,24.68,418.7,34,28.53,-8.7,4.4,-0.24,10:43:50,33.664635,-114.007446,483.6,0.08,18
739906,24.69,418.61,34,28.52,-8.69,4.4,-0.24,10:43:51,33.664635,-114.007446,483.5,0.02,18
740907,24.7,418.61,33,28.54,-8.7,4.41,-0.26,10:43:52,33.664635,-114.007446,483.5,0.06,18
741908,24.7,418.61,31,28.52,-8.69,4.41,-0.24,10:43:53,33.664635,-114.007446,483.5,0.01,18
742909,24.7,418.53,33,28.48,-8.69,4.41,-0.25,10:43:54,33.664635,-114.007446,483.5,0.07,18
743910,24.71,418.53,33,28.46,-8.69,4.41,-0.25,10:43:55,33.664635,-114.007446,483.5,0.06,18
744911,24.72,418.61,33,28.52,-8.7,4.4,-0.23,10:43:56,33.664635,-114.007446,483.5,0.07,18
745912,24.73,418.53,34,28.51,-8.7,4.4,-0.25,10:43:57,33.664635,-114.007446,483.5,0.06,18
746913,24.74,418.53,33,28.55,-8.69,4.4,-0.23,10:43:58,33.664635,-114.007446,483.5,0.01,18
747914,24.75,418.53,34,28.52,-8.7,4.41,-0.24,10:43:59,33.664635,-114.007446,483.5,0.15,18
748915,24.77,418.53,34,28.48,-8.7,4.41,-0.25,10:44:00,33.664635,-114.007446,483.5,0.05,18
749916,24.8,418.53,34,28.5,-8.69,4.41,-0.25,10:44:01,33.664635,-114.007446,483.5,0.14,18
750917,24.81,418.53,33,28.54,-8.69,4.41,-0.25,10:44:02,33.664635,-114.007446,483.5,0.07,18
751918,24.82,418.61,34,28.51,-8.71,4.41,-0.24,10:44:03,33.664635,-114.007446,483.5,0.13,18
752919,24.84,418.53,34,28.51,-8.7,4.41,-0.24,10:44:04,33.664635,-114.007446,483.5,0.12,18
753920,24.85,418.53,34,28.53,-8.7,4.41,-0.25,10:44:05,33.664635,-114.007446,483.5,0.17,18
754921,24.86,418.61,33,28.51,-8.69,4.4,-0.25,10:44:06,33.664631,-114.007446,483.5,0.09,18
755922,24.86,418.61,34,28.56,-8.69,4.4,-0.25,10:44:07,33.664631,-114.007446,483.5,0.07,18
756923,24.87,418.61,33,28.53,-8.7,4.4,-0.24,10:44:08,33.664631,-114.007446,483.5,0.08,18
757924,24.87,418.61,34,28.54,-8.69,4.4,-0.24,10:44:09,33.664631,-114.007446,483.5,0.01,17
758925,24.87,418.53,33,28.54,-8.69,4.4,-0.24,10:44:10,33.664631,-114.007446,483.5,0.02,17
759926,24.88,418.53,33,28.56,-8.7,4.4,-0.24,10:44:11,33.664631,-114.007446,483.5,0.07,17
760927,24.9,418.44,34,28.55,-8.71,4.41,-0.24,10:44:12,33.664631,-114.007446,483.5,0.08,18
761928,24.92,418.44,33,28.59,-8.7,4.41,-0.25,10:44:13,33.664631,-114.007446,483.5,0.08,18
762929,24.93,418.44,33,28.56,-8.71,4.41,-0.23,10:44:14,33.664631,-114.007446,483.5,0.12,18
763930,24.94,418.44,35,28.55,-8.69,4.42,-0.25,10:44:15,33.664631,-114.007446,483.5,0.12,18
764931,24.96,418.53,34,28.55,-8.7,4.39,-0.25,10:44:16,33.664631,-114.007446,483.5,0.12,18
765932,24.97,418.44,33,28.57,-8.7,4.39,-0.24,10:44:17,33.664631,-114.007446,483.5,0.08,18
766933,24.98,418.44,33,28.57,-8.69,4.39,-0.26,10:44:18,33.664635,-114.007446,483.6,0.06,18
767934,25,418.27,33,28.58,-8.69,4.4,-0.24,10:44:19,33.664635,-114.007446,483.6,0.21,18
768935,25.02,418.35,34,28.56,-8.69,4.41,-0.25,10:44:20,33.664631,-114.007446,483.7,0.1,18
769936,25.02,418.27,34,28.57,-8.7,4.4,-0.25,10:44:21,33.664631,-114.007446,483.7,0.13,18
770937,25.01,418.27,34,28.57,-8.71,4.4,-0.24,10:44:22,33.664631,-114.007446,483.7,0.12,18
771938,25.01,418.35,34,28.53,-8.69,4.41,-0.24,10:44:23,33.664631,-114.007446,483.7,0.1,18
772939,25.02,418.27,34,28.58,-8.7,4.41,-0.24,10:44:24,33.664631,-114.007446,483.7,0.09,18
773940,25.03,418.35,34,28.59,-8.69,4.39,-0.24,10:44:25,33.664631,-114.007446,483.7,0.05,18
774941,25.04,418.35,34,28.58,-8.69,4.41,-0.24,10:44:26,33.664631,-114.007446,483.7,0.05,18
775942,25.05,418.35,34,28.58,-8.69,4.41,-0.25,10:44:27,33.664631,-114.007446,483.7,0.09,18
776943,25.08,418.35,34,28.56,-8.71,4.41,-0.24,10:44:28,33.664631,-114.007446,483.7,0.09,18
777944,25.09,418.35,34,28.57,-8.7,4.4,-0.25,10:44:29,33.664631,-114.007446,483.7,0.02,18
778945,25.09,418.35,34,28.59,-8.69,4.4,-0.26,10:44:30,33.664631,-114.007446,483.8,0.21,18
779946,25.1,418.35,33,28.56,-8.7,4.39,-0.25,10:44:31,33.664631,-114.007446,483.7,0.25,18
780947,25.12,418.44,34,28.58,-8.69,4.4,-0.24,10:44:32,33.664631,-114.007446,483.8,0.05,18
781948,25.13,418.44,34,28.57,-8.7,4.39,-0.24,10:44:33,33.664631,-114.007446,483.8,0.01,18
782949,25.15,418.35,34,28.57,-8.69,4.4,-0.25,10:44:34,33.664631,-114.007446,483.8,0.05,18
783950,25.16,418.44,26,28.57,-8.7,4.41,-0.24,10:44:35,33.664631,-114.007446,483.8,0.17,18
784951,25.16,418.35,35,28.59,-8.7,4.41,-0.25,10:44:36,33.664631,-114.007446,483.8,0.09,18
785952,25.16,418.35,34,28.6,-8.71,4.4,-0.24,10:44:37,33.664631,-114.007446,483.7,0.1,18
786953,25.16,418.27,34,28.6,-8.69,4.4,-0.24,10:44:38,33.664631,-114.007446,483.7,0.12,18
787954,25.16,418.27,34,28.59,-8.69,4.4,-0.25,10:44:39,33.664631,-114.007446,483.7,0.05,18
788955,25.14,418.27,34,28.63,-8.15,4.9,-0.34,10:44:40,33.664631,-114.007439,483.6,0.03,18
789956,25.11,418.35,20,28.59,-8.66,5.64,0.25,10:44:41,33.664631,-114.007439,483.6,0.16,18
790957,25.08,418.61,18,28.62,-9.8,6.01,-0.73,10:44:42,33.664631,-114.007439,483.6,0.29,18
791958,25.05,418.79,21,28.63,-8.68,4.23,-1.19,10:44:43,33.664627,-114.007439,483.9,0.35,18
792959,25.03,419.05,25,28.62,-8.88,4.5,-0.67,10:44:44,33.664627,-114.007446,484.1,0.1,17
793960,25.02,419.22,25,28.62,-8.67,4.39,-1.21,10:44:45,33.664631,-114.007446,484.1,0.4,18
794961,25,419.48,34,28.62,-8.85,3.85,-1.28,10:44:46,33.664631,-114.007446,484.1,0.28,18
795962,24.98,419.57,34,28.59,-8.93,3.88,-1.33,10:44:47,33.664631,-114.007446,484.1,0.18,18
796963,24.96,419.65,35,28.61,-8.88,3.82,-1.33,10:44:48,33.664631,-114.007446,484.1,0.18,18
797964,24.93,419.74,34,28.59,-8.85,3.79,-1.35,10:44:49,33.664631,-114.007446,484.1,0.3,18
798965,24.91,419.83,34,28.64,-8.88,3.79,-1.28,10:44:50,33.664631,-114.007446,484.1,0.16,18
799966,24.88,419.91,35,28.61,-8.94,3.51,-1.18,10:44:51,33.664631,-114.007446,484.1,0.07,18
800967,24.86,419.91,35,28.63,-8.96,3.47,-1.06,10:44:52,33.664631,-114.007446,484.1,0.07,17
801968,24.82,419.91,35,28.62,-9.08,3.51,-1.06,10:44:53,33.664631,-114.007446,484.1,0.16,17
802969,24.79,420.09,33,28.66,-9.32,2.87,-0.92,10:44:54,33.664631,-114.007446,484.1,0.05,17
803970,24.77,419.74,34,28.66,-8.48,5.02,-1.06,10:44:55,33.664631,-114.007446,484.1,0.45,17
804971,24.74,419.57,30,28.62,-9.66,4.52,0.85,10:44:56,33.664635,-114.007446,484.1,0.69,17
805972,24.72,419.31,31,28.63,-8.69,4.42,-0.17,10:44:57,33.664635,-114.007446,483.9,0.21,17
806973,24.71,419.22,30,28.62,-8.7,4.43,-0.17,10:44:58,33.664631,-114.007446,483.7,0.16,18
807974,24.71,419.22,30,28.66,-8.69,4.43,-0.17,10:44:59,33.664635,-114.007446,483.7,0.18,18
808975,24.69,419.22,30,28.66,-8.69,4.42,-0.16,10:45:00,33.664635,-114.007446,483.6,0.05,18
809976,24.67,419.13,30,28.63,-8.69,4.43,-0.17,10:45:01,33.664635,-114.007446,483.6,0.37,18
810977,24.67,419.05,30,28.66,-8.68,4.42,-0.16,10:45:02,33.664635,-114.007446,483.6,0.08,18
811978,24.68,418.96,30,28.66,-8.69,4.41,-0.17,10:45:03,33.664635,-114.007446,483.5,0.06,18
812979,24.68,418.79,30,28.63,-8.69,4.42,-0.17,10:45:04,33.664635,-114.007446,483.5,0.07,18
813980,24.69,418.79,30,28.66,-8.69,4.42,-0.17,10:45:05,33.664635,-114.007446,483.5,0.28,18
814981,24.69,418.7,31,28.66,-8.69,4.42,-0.16,10:45:06,33.664635,-114.007446,483.4,0.12,18
815982,24.7,418.7,30,28.66,-8.69,4.41,-0.18,10:45:07,33.664635,-114.007446,483.5,0.13,18
816983,24.69,418.7,30,28.66,-8.68,4.41,-0.17,10:45:08,33.664635,-114.007446,483.4,0.07,18
817984,24.68,418.7,30,28.63,-8.71,4.41,-0.17,10:45:09,33.664635,-114.007446,483.4,0.05,18
818985,24.67,418.79,31,28.66,-8.7,4.42,-0.17,10:45:10,33.664631,-114.007446,483.4,0.13,18
819986,24.66,418.79,30,28.61,-8.69,4.41,-0.16,10:45:11,33.664631,-114.007446,483.4,0.1,18
820987,24.65,418.79,30,28.69,-8.69,4.43,-0.18,10:45:12,33.664631,-114.007446,483.4,0.17,18
821988,24.64,418.79,30,28.63,-8.69,4.41,-0.17,10:45:13,33.664631,-114.007446,483.4,0.02,18
822989,24.64,418.87,29,28.66,-8.68,4.42,-0.17,10:45:14,33.664631,-114.007446,483.4,0.12,18
823990,24.64,418.87,30,28.64,-8.69,4.42,-0.17,10:45:15,33.664631,-114.007446,483.4,0.06,18
824991,24.64,418.96,30,28.68,-8.7,4.42,-0.17,10:45:16,33.664631,-114.007446,483.4,0.2,18
825992,24.64,418.96,31,28.69,-8.69,4.43,-0.18,10:45:17,33.664631,-114.007446,483.4,0.06,18
826993,24.63,418.96,25,28.65,-8.69,4.42,-0.17,10:45:18,33.664631,-114.007446,483.4,0.29,18
827994,24.63,418.96,25,28.62,-8.69,4.42,-0.17,10:45:19,33.664631,-114.007446,483.3,0.23,18
828995,24.62,419.13,30,28.71,-8.69,4.41,-0.18,10:45:20,33.664631,-114.007446,483.3,0.22,18
829996,24.61,419.22,29,28.65,-8.69,4.43,-0.16,10:45:21,33.664631,-114.007446,483.3,0.12,18
830997,24.59,419.22,29,28.66,-8.71,4.42,-0.16,10:45:22,33.664631,-114.007446,483.3,0.1,18
831998,24.59,419.22,29,28.69,-8.7,4.42,-0.17,10:45:23,33.664631,-114.007446,483.3,0.17,18
832999,24.59,419.22,30,28.68,-8.69,4.41,-0.18,10:45:24,33.664631,-114.007446,483.3,0.06,18
834000,24.59,419.22,29,28.69,-8.7,4.42,-0.17,10:45:25,33.664631,-114.007446,483.3,0.18,18
835001,24.58,419.22,29,28.66,-8.68,4.42,-0.2,10:45:26,33.664631,-114.007446,483.3,0.01,18
836002,24.57,419.31,29,28.68,-9.38,4.8,-0.27,10:45:27,33.664631,-114.007446,483.3,0.03,18
837003,24.56,419.22,29,28.69,-8.69,4.43,-0.2,10:45:28,33.664631,-114.007446,483.3,0.03,18
838004,24.55,419.31,29,28.71,-8.68,4.43,-0.18,10:45:29,33.664631,-114.007446,483.3,0.07,18
839005,24.54,419.31,30,28.74,-8.69,4.42,-0.17,10:45:30,33.664631,-114.007446,483.3,0.08,18
840006,24.53,419.31,30,28.72,-8.68,4.43,-0.17,10:45:31,33.664631,-114.007446,483.3,0.12,18
841007,24.53,419.39,30,28.72,-8.69,4.42,-0.18,10:45:32,33.664631,-114.007439,483.4,0.23,18
842008,24.52,419.31,30,28.7,-8.7,4.42,-0.17,10:45:33,33.664631,-114.007439,483.4,0.14,18
843009,24.51,419.31,30,28.74,-8.69,4.43,-0.17,10:45:34,33.664631,-114.007439,483.4,0.13,18
844010,24.49,419.31,30,28.71,-8.69,4.43,-0.17,10:45:35,33.664631,-114.007439,483.4,0.06,18
845011,24.48,419.22,31,28.74,-8.69,4.42,-0.18,10:45:36,33.664627,-114.007439,483.4,0.1,18
846012,24.48,419.22,25,28.7,-8.69,4.42,-0.17,10:45:37,33.664627,-114.007439,483.4,0.08,18
847013,24.48,419.22,31,28.72,-8.69,4.42,-0.17,10:45:38,33.664627,-114.007446,483.4,0.09,18
848014,24.48,419.22,30,28.76,-8.69,4.42,-0.18,10:45:39,33.664627,-114.007446,483.3,0.14,18
849015,24.5,419.22,31,28.75,-8.69,4.42,-0.17,10:45:40,33.664627,-114.007446,483.3,0.12,18
850016,24.5,419.22,31,28.71,-8.69,4.43,-0.17,10:45:41,33.664627,-114.007446,483.3,0.08,18
851017,24.51,419.22,31,28.71,-8.69,4.42,-0.17,10:45:42,33.664627,-114.007446,483.3,0.06,18
852018,24.52,419.22,31,28.77,-8.69,4.43,-0.18,10:45:43,33.664627,-114.007446,483.3,0.07,18
853019,24.53,419.31,31,28.72,-8.7,4.43,-0.17,10:45:44,33.664627,-114.007446,483.3,0.08,18
854020,24.53,419.22,31,28.71,-8.69,4.42,-0.17,10:45:45,33.664627,-114.007446,483.3,0.12,18
855021,24.54,419.31,31,28.71,-8.68,4.43,-0.18,10:45:46,33.664627,-114.007446,483.3,0.17,18
856022,24.54,419.31,31,28.75,-8.7,4.43,-0.17,10:45:47,33.664627,-114.007446,483.4,0.14,18
857023,24.55,419.22,31,28.75,-8.69,4.42,-0.17,10:45:48,33.664631,-114.007446,483.4,0.08,18
858024,24.55,419.22,33,28.79,-8.69,4.42,-0.17,10:45:49,33.664631,-114.007446,483.4,0.08,18
859025,24.57,419.22,31,28.75,-8.69,4.42,-0.18,10:45:50,33.664631,-114.007446,483.4,0.13,18
860026,24.58,419.31,31,28.77,-8.69,4.43,-0.17,10:45:51,33.664631,-114.007446,483.4,0.08,18
861027,24.58,419.22,31,28.82,-8.68,4.42,-0.18,10:45:52,33.664631,-114.007446,483.4,0.05,18
862028,24.58,419.13,31,28.76,-8.7,4.42,-0.17,10:45:53,33.664631,-114.007446,483.4,0.05,18
863029,24.58,419.13,31,28.73,-8.69,4.43,-0.17,10:45:54,33.664631,-114.007446,483.4,0.05,18
864030,24.59,419.13,33,28.79,-8.69,4.42,-0.17,10:45:55,33.664631,-114.007446,483.4,0.06,18
865031,24.6,419.13,31,28.79,-8.69,4.42,-0.17,10:45:56,33.664631,-114.007446,483.4,0.07,18
866032,24.61,419.13,31,28.76,-8.7,4.43,-0.17,10:45:57,33.664631,-114.007446,483.4,0.21,18
867033,24.6,419.22,31,28.78,-8.69,4.42,-0.17,10:45:58,33.664631,-114.007446,483.4,0.1,18
868034,24.59,419.31,31,28.77,-8.69,4.42,-0.16,10:45:59,33.664631,-114.007446,483.3,0.14,18
869035,24.59,419.31,31,28.79,-8.69,4.42,-0.18,10:46:00,33.664627,-114.007446,483.4,0.05,18
870036,24.59,419.22,31,28.79,-8.68,4.42,-0.18,10:46:01,33.664627,-114.007446,483.3,0.02,18
871037,24.6,419.13,31,28.77,-8.69,4.42,-0.18,10:46:02,33.664627,-114.007446,483.4,0.14,18
872038,24.6,419.13,31,28.78,-8.7,4.42,-0.18,10:46:03,33.664627,-114.007446,483.4,0.03,18
873039,24.6,419.13,29,28.81,-8.69,4.42,-0.18,10:46:04,33.664631,-114.007446,483.4,0.03,18
874040,24.59,419.22,26,28.79,-8.69,4.42,-0.18,10:46:05,33.664631,-114.007446,483.4,0.02,18
875041,24.58,419.13,31,28.85,-8.69,4.43,-0.18,10:46:06,33.664631,-114.007446,483.4,0.13,18
876042,24.56,419.22,31,28.83,-8.69,4.42,-0.17,10:46:07,33.664631,-114.007446,483.4,0.15,18
877043,24.56,419.13,31,28.79,-8.69,4.43,-0.17,10:46:08,33.664631,-114.007446,483.4,0.09,18
878044,24.57,419.13,30,28.81,-8.69,4.43,-0.17,10:46:09,33.664631,-114.007446,483.4,0.07,18
879045,24.56,419.13,31,28.82,-8.7,4.42,-0.17,10:46:10,33.664631,-114.007446,483.4,0.09,18
880046,24.56,419.13,31,28.79,-8.69,4.43,-0.17,10:46:11,33.664631,-114.007446,483.4,0.13,18
881047,24.55,419.13,31,28.83,-8.69,4.42,-0.18,10:46:12,33.664631,-114.007439,483.4,0.13,18
882048,24.55,419.05,31,28.79,-8.69,4.42,-0.17,10:46:13,33.664631,-114.007439,483.4,0.09,18
883049,24.56,419.05,31,28.81,-8.69,4.43,-0.17,10:46:14,33.664631,-114.007439,483.4,0.06,18
884050,24.55,419.13,31,28.79,-8.69,4.42,-0.16,10:46:15,33.664631,-114.007439,483.4,0.05,18
885051,24.54,419.13,31,28.78,-8.69,4.43,-0.17,10:46:16,33.664631,-114.007439,483.4,0.03,18
886052,24.54,419.13,31,28.83,-8.69,4.42,-0.18,10:46:17,33.664631,-114.007439,483.4,0.02,18
887053,24.54,419.05,30,28.83,-8.7,4.43,-0.18,10:46:18,33.664631,-114.007439,483.4,0.14,18
888054,24.54,419.05,31,28.84,-8.69,4.42,-0.18,10:46:19,33.664631,-114.007439,483.4,0.13,18
889055,24.54,419.05,31,28.82,-8.69,4.43,-0.17,10:46:20,33.664631,-114.007439,483.4,0.05,18
890056,24.54,419.05,31,28.81,-8.69,4.43,-0.17,10:46:21,33.664631,-114.007446,483.4,0.08,18
891057,24.54,419.05,31,28.85,-8.69,4.43,-0.18,10:46:22,33.664631,-114.007446,483.4,0.02,18
892058,24.54,418.96,30,28.86,-8.69,4.43,-0.18,10:46:23,33.664631,-114.007446,483.4,0.05,18
893059,24.56,418.96,31,28.82,-8.69,4.42,-0.18,10:46:24,33.664631,-114.007446,483.4,0.01,18
894060,24.56,419.05,30,28.86,-8.69,4.42,-0.17,10:46:25,33.664631,-114.007446,483.4,0.02,18
895061,24.57,418.96,31,28.84,-8.69,4.42,-0.19,10:46:26,33.664631,-114.007446,483.5,0.12,18
896062,24.58,419.05,31,28.85,-8.69,4.43,-0.18,10:46:27,33.664631,-114.007446,483.5,0.16,18
897063,24.59,419.05,33,28.84,-8.69,4.43,-0.17,10:46:28,33.664631,-114.007446,483.5,0.05,18
898064,24.6,419.05,31,28.84,-8.69,4.43,-0.17,10:46:29,33.664631,-114.007446,483.4,0.03,18
899065,24.6,419.05,31,28.87,-8.69,4.42,-0.18,10:46:30,33.664631,-114.007446,483.4,0.02,17
900066,24.61,419.05,31,28.84,-8.7,4.41,-0.17,10:46:31,33.664631,-114.007446,483.4,0.29,17
901067,24.62,419.05,31,28.87,-8.7,4.44,-0.17,10:46:32,33.664631,-114.007446,483.4,0.13,17
902068,24.63,419.13,31,28.86,-8.7,4.43,-0.16,10:46:33,33.664631,-114.007446,483.4,0.12,17
903069,24.63,419.22,33,28.87,-8.69,4.42,-0.16,10:46:34,33.664631,-114.007446,483.5,0.05,17
904070,24.63,419.22,31,28.86,-8.69,4.42,-0.17,10:46:35,33.664631,-114.007446,483.5,0.08,17
905071,24.62,419.13,30,28.84,-8.69,4.43,-0.17,10:46:36,33.664631,-114.007446,483.5,0.05,17
906072,24.63,419.22,31,28.87,-8.7,4.42,-0.17,10:46:37,33.664631,-114.007446,483.5,0.07,17
907073,24.64,419.22,31,28.86,-8.69,4.42,-0.17,10:46:38,33.664631,-114.007446,483.5,0.06,17
908074,24.64,419.31,30,28.9,-8.7,4.43,-0.17,10:46:39,33.664631,-114.007446,483.6,0.06,17
909075,24.65,419.31,31,28.85,-8.68,4.42,-0.17,10:46:40,33.664631,-114.007446,483.6,0.09,17
910076,24.67,419.22,30,28.91,-8.69,4.41,-0.17,10:46:41,33.664631,-114.007446,483.5,0.09,17
911077,24.68,419.13,30,28.87,-8.7,4.43,-0.18,10:46:42,33.664631,-114.007446,483.4,0.1,18
912078,24.7,419.22,31,28.88,-8.69,4.42,-0.17,10:46:43,33.664631,-114.007439,483.4,0.07,18
913079,24.72,419.22,31,28.87,-8.69,4.42,-0.17,10:46:44,33.664631,-114.007439,483.4,0.17,18
914080,24.74,419.31,31,28.91,-8.7,4.42,-0.18,10:46:45,33.664631,-114.007439,483.4,0.12,18
915081,24.74,419.22,30,28.88,-8.69,4.42,-0.18,10:46:46,33.664631,-114.007439,483.4,0.08,18
916082,24.72,419.22,31,28.85,-8.69,4.42,-0.17,10:46:47,33.664631,-114.007439,483.3,0.09,18
917083,24.71,419.13,31,28.87,-8.7,4.42,-0.18,10:46:48,33.664631,-114.007439,483.3,0.24,18
918084,24.7,419.13,30,28.87,-8.69,4.42,-0.18,10:46:49,33.664631,-114.007439,483.3,0.15,18
919085,24.71,419.13,30,28.89,-8.68,4.43,-0.17,10:46:50,33.664631,-114.007446,483.3,0.13,18
920086,24.71,419.13,31,28.91,-8.68,4.43,-0.18,10:46:51,33.664631,-114.007439,483.3,0.05,18
921087,24.72,419.13,33,28.91,-8.7,4.43,-0.17,10:46:52,33.664631,-114.007439,483.3,0.02,18
922088,24.74,419.05,33,28.92,-8.69,4.42,-0.17,10:46:53,33.664631,-114.007439,483.3,0.05,18
923089,24.77,419.05,31,28.94,-8.69,4.42,-0.18,10:46:54,33.664631,-114.007439,483.3,0.08,18
924090,24.79,419.05,31,28.91,-8.69,4.42,-0.18,10:46:55,33.664631,-114.007439,483.3,0.05,18
925091,24.82,419.05,30,28.9,-8.69,4.43,-0.17,10:46:56,33.664631,-114.007439,483.3,0.02,18
926092,24.83,418.96,30,28.92,-8.69,4.43,-0.17,10:46:57,33.664631,-114.007439,483.3,0.01,18
927093,24.85,419.05,25,28.87,-8.69,4.42,-0.17,10:46:58,33.664631,-114.007439,483.3,0.09,18
928094,24.86,419.13,25,28.93,-8.69,4.42,-0.17,10:46:59,33.664631,-114.007439,483.3,0.2,18
929095,24.88,419.13,25,28.94,-8.69,4.42,-0.17,10:47:00,33.664631,-114.007439,483.2,0.01,18
930096,24.87,419.05,26,28.96,-8.69,4.42,-0.17,10:47:01,33.664631,-114.007439,483.2,0.06,18
931097,24.87,419.13,28,28.91,-8.69,4.42,-0.17,10:47:02,33.664631,-114.007439,483.2,0.2,18
932098,24.87,419.13,26,28.92,-8.7,4.42,-0.16,10:47:03,33.664631,-114.007439,483.2,0.14,18
933099,24.88,419.13,26,28.91,-8.7,4.42,-0.18,10:47:04,33.664631,-114.007439,483.1,0.12,18
934100,24.88,419.13,28,28.94,-8.69,4.42,-0.18,10:47:05,33.664627,-114.007439,483.1,0.02,18
935101,24.89,419.13,28,28.97,-8.7,4.41,-0.17,10:47:06,33.664627,-114.007439,483.1,0.35,18
936102,24.9,419.05,30,28.95,-8.69,4.42,-0.17,10:47:07,33.664627,-114.007439,483,0.31,18
937103,24.92,419.05,31,28.95,-8.7,4.43,-0.17,10:47:08,33.664627,-114.007439,483,0.05,18
938104,24.94,418.96,31,28.89,-8.69,4.43,-0.17,10:47:09,33.664627,-114.007439,483,0.08,18
939105,24.94,418.96,30,28.96,-8.68,4.43,-0.17,10:47:10,33.664627,-114.007439,482.9,0.14,18
940106,24.94,418.96,31,28.93,-8.69,4.41,-0.18,10:47:11,33.664627,-114.007439,482.9,0.08,18
941107,24.94,419.05,30,28.92,-8.69,4.43,-0.17,10:47:12,33.664627,-114.007439,482.9,0.14,18
942108,24.94,418.96,31,28.94,-8.69,4.42,-0.17,10:47:13,33.664627,-114.007439,482.9,0.09,18
943109,24.93,419.05,30,28.93,-8.68,4.42,-0.17,10:47:14,33.664627,-114.007439,482.9,0,18
944110,24.9,418.96,31,28.97,-8.69,4.43,-0.16,10:47:15,33.664627,-114.007439,482.9,0.01,18
945111,24.9,418.96,30,28.97,-8.69,4.42,-0.18,10:47:16,33.664627,-114.007439,482.9,0.13,18
946112,24.88,419.05,30,28.98,-8.7,4.42,-0.17,10:47:17,33.664627,-114.007439,482.9,0.12,18
947113,24.88,419.05,31,28.94,-8.69,4.43,-0.17,10:47:18,33.664627,-114.007439,483,0.14,18
948114,24.88,419.05,31,28.94,-8.69,4.42,-0.17,10:47:19,33.664627,-114.007439,482.8,0.09,18
949115,24.87,418.96,30,29,-8.69,4.42,-0.17,10:47:20,33.664627,-114.007439,482.8,0.16,18
950116,24.86,418.96,30,28.92,-8.7,4.42,-0.18,10:47:21,33.664627,-114.007439,482.8,0.01,18
951117,24.82,418.96,30,28.98,-8.68,4.42,-0.17,10:47:22,33.664627,-114.007439,482.8,0.06,18
952118,24.8,418.87,33,29.01,-8.67,4.42,-0.17,10:47:23,33.664627,-114.007439,482.8,0.05,18
953119,24.78,418.87,31,28.99,-8.68,4.42,-0.17,10:47:24,33.664627,-114.007439,482.8,0.08,18
954120,24.77,418.87,33,29.01,-8.68,4.43,-0.18,10:47:25,33.664627,-114.007439,482.8,0.09,18
955121,24.77,418.79,31,28.99,-8.69,4.42,-0.16,10:47:26,33.664627,-114.007439,482.8,0.06,18
956122,24.77,418.87,31,29.01,-8.68,4.42,-0.18,10:47:27,33.664627,-114.007439,482.8,0.08,18
957123,24.76,418.96,33,29,-8.7,4.42,-0.16,10:47:28,33.664627,-114.007439,482.8,0.08,18
958124,24.75,418.96,33,28.99,-8.69,4.41,-0.17,10:47:29,33.664627,-114.007439,482.8,0.06,18
959125,24.74,418.96,31,29.02,-8.69,4.43,-0.18,10:47:30,33.664627,-114.007439,482.8,0.06,18
960126,24.72,418.96,31,29,-8.69,4.43,-0.17,10:47:31,33.664627,-114.007439,482.8,0.13,18
961127,24.71,418.96,31,29.04,-8.69,4.43,-0.17,10:47:32,33.664627,-114.007439,482.8,0.31,18
962128,24.71,418.87,30,29.04,-8.7,4.42,-0.18,10:47:33,33.664623,-114.007439,482.9,0.44,18
963129,24.72,418.87,29,29.02,-8.7,4.42,-0.17,10:47:34,33.664623,-114.007439,482.8,0.35,18
964130,24.73,418.87,30,29.03,-8.68,4.43,-0.17,10:47:35,33.664623,-114.007439,482.8,0.28,18
965131,24.74,418.96,34,29.05,-8.69,4.42,-0.18,10:47:36,33.664623,-114.007439,482.8,0.14,18
966132,24.75,419.05,34,29.07,-8.7,4.42,-0.18,10:47:37,33.664623,-114.007439,482.7,0.13,18
967133,24.75,419.13,33,29.03,-8.69,4.42,-0.18,10:47:38,33.664623,-114.007439,482.7,0.09,18
968134,24.75,419.13,34,29.05,-8.69,4.42,-0.18,10:47:39,33.664623,-114.007439,482.7,0.03,18
969135,24.75,419.22,34,29.04,-8.69,4.43,-0.17,10:47:40,33.664623,-114.007439,482.7,0.08,18
970136,24.75,419.22,34,29.07,-8.69,4.43,-0.18,10:47:41,33.664623,-114.007439,482.7,0.07,18
971137,24.75,419.22,34,29.05,-8.7,4.42,-0.17,10:47:42,33.664623,-114.007439,482.7,0.05,18
972138,24.75,419.31,34,29.04,-8.69,4.42,-0.18,10:47:43,33.664623,-114.007439,482.7,0.06,18
973139,24.75,419.31,34,29.08,-8.7,4.43,-0.17,10:47:44,33.664623,-114.007439,482.7,0.08,18
974140,24.74,419.39,35,29.06,-8.7,4.42,-0.17,10:47:45,33.664623,-114.007439,482.7,0.13,18
975141,24.74,419.31,34,29.05,-8.69,4.42,-0.17,10:47:46,33.664623,-114.007439,482.7,0.18,18
976142,24.74,419.31,34,29.07,-8.69,4.43,-0.17,10:47:47,33.664623,-114.007439,482.7,0.17,18
977143,24.74,419.31,34,29.11,-8.7,4.44,-0.17,10:47:48,33.664623,-114.007439,482.7,0.09,18
978144,24.74,419.39,34,29.05,-8.69,4.43,-0.17,10:47:49,33.664623,-114.007439,482.6,0.07,18
979145,24.75,419.31,34,29.04,-8.69,4.43,-0.17,10:47:50,33.664623,-114.007439,482.6,0.05,18
980146,24.76,419.31,34,29.09,-8.69,4.42,-0.18,10:47:51,33.664623,-114.007439,482.6,0.07,18
981147,24.76,419.31,33,29.08,-8.71,4.42,-0.18,10:47:52,33.664623,-114.007439,482.6,0.14,18
982148,24.76,419.13,34,29.11,-8.69,4.41,-0.18,10:47:53,33.664623,-114.007439,482.6,0.08,18
983149,24.77,419.13,29,29.09,-8.69,4.42,-0.19,10:47:54,33.664623,-114.007439,482.6,0.1,18
984150,24.77,419.13,33,29.05,-8.69,4.43,-0.17,10:47:55,33.664623,-114.007439,482.6,0.05,18
985151,24.78,419.22,34,29.11,-8.7,4.43,-0.18,10:47:56,33.664623,-114.007439,482.6,0.02,18
986152,24.79,419.22,34,29.09,-8.7,4.42,-0.18,10:47:57,33.664623,-114.007439,482.6,0.12,18
987153,24.79,419.22,34,29.08,-8.69,4.42,-0.17,10:47:58,33.664623,-114.007439,482.6,0.06,18
988154,24.79,419.31,34,29.08,-8.68,4.42,-0.18,10:47:59,33.664623,-114.007439,482.6,0.03,18
989155,24.79,419.22,33,29.09,-8.69,4.42,-0.18,10:48:00,33.664623,-114.007439,482.6,0.09,18
990156,24.78,419.13,31,29.08,-8.68,4.41,-0.18,10:48:01,33.664623,-114.007439,482.6,0.12,18
991157,24.77,419.13,33,29.09,-8.69,4.42,-0.18,10:48:02,33.664623,-114.007439,482.6,0.06,18
992158,24.75,419.05,33,29.13,-8.69,4.42,-0.19,10:48:03,33.664623,-114.007439,482.6,0.17,18
993159,24.74,418.96,33,29.1,-8.69,4.42,-0.17,10:48:04,33.664623,-114.007439,482.6,0.09,18
994160,24.71,419.05,30,29.1,-8.68,4.42,-0.17,10:48:05,33.664627,-114.007439,482.6,0.03,18
995161,24.7,419.05,33,29.13,-8.69,4.42,-0.17,10:48:06,33.664627,-114.007439,482.5,0.03,18
996162,24.69,419.48,31,29.12,-12.87,5.36,-0.5,10:48:07,33.664627,-114.007439,482.5,0.06,18
997163,24.69,419.48,21,29.09,-7.3,2.65,1.83,10:48:08,33.664627,-114.007439,482.5,0.22,18
998164,24.69,419.65,18,29.12,-9.86,2.72,0.22,10:48:09,33.664627,-114.007439,482.5,0.52,18
999165,24.68,419.91,19,29.12,-8.89,3.69,0.7,10:48:10,33.664623,-114.007439,482.8,0.1,18
1000166,24.67,420.09,16,29.12,-8.71,4.39,0.2,10:48:11,33.664623,-114.007446,483,0.05,18
1001167,24.66,420.17,16,29.13,-9.01,3.68,-0.47,10:48:12,33.664627,-114.007439,483,0.02,18
1002168,24.64,420.35,16,29.1,-8.96,3.69,-0.39,10:48:13,33.664623,-114.007446,483,0.07,18
1003169,24.63,420.43,18,29.1,-9.11,3.63,-0.39,10:48:14,33.664627,-114.007446,483,0.21,18
1004170,24.63,420.43,18,29.12,-9.23,3.13,-0.01,10:48:15,33.664623,-114.007446,483,0.2,18
1005171,24.64,420.26,18,29.12,-9.34,3.9,-0.2,10:48:16,33.664623,-114.007446,483,0.18,18
1006172,24.64,420.09,18,29.15,-8.7,4.19,0,10:48:17,33.664623,-114.007439,483.1,0.41,18
1007173,24.64,420.35,18,29.14,-8.72,4.07,-0.72,10:48:18,33.664623,-114.007446,483.1,0.25,18
1008174,24.62,420.17,16,29.12,-8.89,3.69,-0.92,10:48:19,33.664623,-114.007446,483.1,0.28,18
1009175,24.61,420,18,29.12,-8.96,3.53,-0.74,10:48:20,33.664623,-114.007446,483.1,0.1,18
1010176,24.6,419.91,16,29.17,-8.95,3.51,-0.8,10:48:21,33.664623,-114.007446,483.1,0.05,18
1011177,24.6,419.91,16,29.12,-9,3.48,-0.69,10:48:22,33.664623,-114.007446,483.1,0.05,18
1012178,24.6,419.83,19,29.16,-8.9,3.26,0,10:48:23,33.664623,-114.007446,483.1,0.1,18
1013179,24.6,419.74,19,29.12,-8.79,3.8,0.64,10:48:24,33.664623,-114.007446,483.1,0.29,18
1014180,24.6,419.83,20,29.13,-9.36,3.46,1.09,10:48:25,33.664623,-114.007446,483.1,0.37,18
1015181,24.58,419.91,40,29.14,-6.95,2.77,0.62,10:48:26,33.664623,-114.007446,483.1,0.36,18
1016182,24.56,419.91,31,29.15,-10.7,5.54,-2.14,10:48:27,33.664623,-114.007439,483.1,0.22,18
1017183,24.52,419.74,33,29.18,-8.68,4.43,-0.18,10:48:28,33.664623,-114.007439,483,0.29,18
1018184,24.5,419.83,31,29.13,-8.68,4.43,-0.19,10:48:29,33.664623,-114.007439,483,0.21,18
1019185,24.49,419.74,31,29.14,-8.69,4.43,-0.18,10:48:30,33.664623,-114.007439,483,0.15,18
1020186,24.48,419.74,31,29.16,-8.69,4.44,-0.19,10:48:31,33.664623,-114.007439,483,0.09,18
1021187,24.49,419.57,31,29.12,-8.68,4.44,-0.2,10:48:32,33.664623,-114.007439,483,0.13,18
1022188,24.49,419.57,30,29.17,-8.69,4.43,-0.19,10:48:33,33.664623,-114.007439,483,0.03,18
1023189,24.5,419.48,31,29.18,-8.68,4.44,-0.19,10:48:34,33.664623,-114.007439,482.9,0.06,18
1024190,24.5,419.48,30,29.16,-8.69,4.43,-0.2,10:48:35,33.664623,-114.007439,482.9,0.03,18
1025191,24.5,419.48,30,29.16,-8.68,4.44,-0.19,10:48:36,33.664623,-114.007439,482.9,0.1,18
1026192,24.5,419.39,29,29.15,-8.68,4.43,-0.18,10:48:37,33.664623,-114.007439,482.9,0.16,18
1027193,24.5,419.31,29,29.18,-8.7,4.43,-0.19,10:48:38,33.664623,-114.007439,482.9,0.08,18
1028194,24.48,419.22,30,29.18,-8.68,4.43,-0.18,10:48:39,33.664623,-114.007439,482.9,0.09,18
1029195,24.48,419.05,30,29.14,-8.69,4.45,-0.19,10:48:40,33.664623,-114.007439,482.9,0.17,18
1030196,24.5,419.22,31,29.15,-8.68,4.43,-0.18,10:48:41,33.664623,-114.007439,482.9,0.12,18
1031197,24.51,419.31,30,29.17,-8.69,4.43,-0.19,10:48:42,33.664623,-114.007439,482.9,0.37,18
1032198,24.52,419.48,31,29.2,-8.69,4.44,-0.2,10:48:43,33.664623,-114.007439,482.9,0.23,18
1033199,24.52,419.48,31,29.23,-8.67,4.44,-0.2,10:48:44,33.664619,-114.007439,483,0.05,18
1034200,24.51,419.48,30,29.19,-8.69,4.43,-0.18,10:48:45,33.664619,-114.007439,483,0.05,18
1035201,24.49,419.57,31,29.2,-8.68,4.43,-0.2,10:48:46,33.664619,-114.007439,483,0.09,18
1036202,24.49,419.57,31,29.19,-8.69,4.43,-0.2,10:48:47,33.664619,-114.007439,483,0.29,18
1037203,24.49,419.57,31,29.17,-8.68,4.44,-0.19,10:48:48,33.664619,-114.007439,483,0.38,18
1038204,24.5,419.48,31,29.2,-8.68,4.44,-0.19,10:48:49,33.664619,-114.007439,483,0.18,18
1039205,24.52,419.57,31,29.19,-8.68,4.43,-0.19,10:48:50,33.664619,-114.007439,483,0.15,18
1040206,24.53,419.57,31,29.23,-8.69,4.44,-0.2,10:48:51,33.664619,-114.007439,483,0.15,18
1041207,24.54,419.57,31,29.23,-8.68,4.43,-0.18,10:48:52,33.664619,-114.007439,483,0.07,18
1042208,24.55,419.57,31,29.19,-8.69,4.44,-0.19,10:48:53,33.664619,-114.007439,483,0.02,18
1043209,24.55,419.57,31,29.25,-8.69,4.44,-0.19,10:48:54,33.664619,-114.007439,483,0.09,18
1044210,24.56,419.57,31,29.25,-8.68,4.44,-0.19,10:48:55,33.664619,-114.007439,483,0.14,18
1045211,24.56,419.57,31,29.24,-8.69,4.43,-0.19,10:48:56,33.664619,-114.007446,483,0.06,18
1046212,24.57,419.48,31,29.25,-8.68,4.44,-0.18,10:48:57,33.664619,-114.007446,483,0.06,18
1047213,24.58,419.57,31,29.25,-8.69,4.44,-0.2,10:48:58,33.664619,-114.007446,483,0.06,18
1048214,24.59,419.57,31,29.29,-8.68,4.43,-0.19,10:48:59,33.664619,-114.007446,483,0.06,18
1049215,24.6,419.57,31,29.22,-8.69,4.43,-0.19,10:49:00,33.664619,-114.007446,483,0.21,18
1050216,24.6,419.57,31,29.22,-8.68,4.43,-0.19,10:49:01,33.664619,-114.007446,483,0.06,18
1051217,24.62,419.48,30,29.28,-8.69,4.44,-0.19,10:49:02,33.664619,-114.007439,483,0.21,18
1052218,24.62,419.57,30,29.25,-8.68,4.44,-0.2,10:49:03,33.664619,-114.007439,483,0.16,18
1053219,24.63,419.48,30,29.21,-8.69,4.44,-0.19,10:49:04,33.664619,-114.007439,483,0.1,18
1054220,24.62,419.57,31,29.27,-8.69,4.43,-0.19,10:49:05,33.664619,-114.007446,482.9,0.08,18
1055221,24.61,419.57,31,29.26,-8.68,4.44,-0.18,10:49:06,33.664619,-114.007446,482.9,0.02,18
1056222,24.58,419.65,30,29.26,-8.68,4.45,-0.2,10:49:07,33.664619,-114.007446,482.9,0.05,18
1057223,24.56,419.74,30,29.27,-8.68,4.44,-0.19,10:49:08,33.664619,-114.007446,482.9,0.12,18
1058224,24.55,419.83,30,29.27,-8.68,4.44,-0.18,10:49:09,33.664619,-114.007446,482.9,0.15,18
1059225,24.55,419.83,29,29.3,-8.69,4.44,-0.2,10:49:10,33.664619,-114.007446,482.9,0.17,18
1060226,24.55,419.83,21,29.31,-8.68,4.43,-0.19,10:49:11,33.664619,-114.007446,482.9,0.07,18
1061227,24.55,419.83,25,29.33,-8.68,4.44,-0.18,10:49:12,33.664619,-114.007446,482.9,0.15,18
1062228,24.54,419.91,26,29.31,-8.69,4.44,-0.19,10:49:13,33.664619,-114.007446,482.9,0.1,18
1063229,24.53,419.91,25,29.32,-8.75,4.5,-0.03,10:49:14,33.664619,-114.007446,482.8,0.25,18
1064230,24.51,419.91,23,29.29,-8.68,4.45,-0.2,10:49:15,33.664619,-114.007446,482.8,0.12,18
1065231,24.49,419.83,23,29.31,-8.52,4.59,-0.17,10:49:16,33.664619,-114.007446,482.7,0.09,18
1066232,24.49,419.74,25,29.34,-8.69,4.43,-0.19,10:49:17,33.664619,-114.007446,482.8,0.07,16
1067233,24.49,419.74,24,29.33,-8.69,4.43,-0.19,10:49:18,33.664619,-114.007446,482.7,0.06,17
1068234,24.49,419.74,28,29.27,-8.69,4.43,-0.2,10:49:19,33.664619,-114.007446,482.7,0.1,17
1069235,24.49,419.65,29,29.33,-8.69,4.43,-0.2,10:49:20,33.664619,-114.007446,482.7,0.07,18
1070236,24.5,419.48,30,29.35,-8.68,4.42,-0.2,10:49:21,33.664619,-114.007446,482.7,0.15,18
1071237,24.51,419.48,29,29.34,-8.69,4.43,-0.19,10:49:22,33.664619,-114.007446,482.7,0.06,18
1072238,24.52,419.48,30,29.34,-8.68,4.44,-0.19,10:49:23,33.664619,-114.007446,482.7,0.01,18
1073239,24.52,419.48,30,29.3,-8.68,4.44,-0.19,10:49:24,33.664619,-114.007446,482.7,0.08,18
1074240,24.51,419.39,30,29.37,-8.69,4.43,-0.19,10:49:25,33.664619,-114.007446,482.7,0.1,18
1075241,24.5,419.39,30,29.33,-8.69,4.43,-0.19,10:49:26,33.664619,-114.007446,482.7,0.07,18
1076242,24.5,419.48,29,29.34,-8.69,4.44,-0.18,10:49:27,33.664619,-114.007446,482.7,0.13,18
1077243,24.5,419.48,29,29.36,-8.68,4.44,-0.19,10:49:28,33.664619,-114.007446,482.7,0.08,18
1078244,24.51,419.48,30,29.37,-8.69,4.42,-0.19,10:49:29,33.664619,-114.007446,482.7,0.07,18
1079245,24.53,419.48,30,29.33,-8.68,4.43,-0.19,10:49:30,33.664619,-114.007446,482.7,0.09,17
1080246,24.54,419.39,30,29.37,-8.68,4.44,-0.19,10:49:31,33.664619,-114.007446,482.7,0.08,17
1081247,24.56,419.39,31,29.35,-8.69,4.43,-0.18,10:49:32,33.664619,-114.007446,482.7,0.2,17
1082248,24.59,419.39,30,29.35,-8.68,4.43,-0.18,10:49:33,33.664619,-114.007446,482.7,0.14,17
1083249,24.61,419.48,30,29.38,-8.69,4.43,-0.2,10:49:34,33.664619,-114.007446,482.7,0.08,17
1084250,24.64,419.65,23,29.37,-8.67,4.43,-0.19,10:49:35,33.664619,-114.007446,482.7,0.05,17
1085251,24.66,419.74,21,29.37,-8.69,4.43,-0.19,10:49:36,33.664619,-114.007446,482.6,0.1,17
1086252,24.67,419.74,23,29.37,-8.68,4.44,-0.19,10:49:37,33.664619,-114.007446,482.6,0.05,17
1087253,24.68,419.83,20,29.38,-9.29,6.62,0.43,10:49:38,33.664619,-114.007446,482.6,0.05,17
1088254,24.67,419.91,36,29.35,-6.38,2.56,-0.73,10:49:39,33.664619,-114.007446,482.6,0.07,17
1089255,24.67,420.09,29,29.33,-9.17,3.39,0.33,10:49:40,33.664619,-114.007446,482.6,0.64,17
1090256,24.66,420.35,20,29.39,-9.29,3.79,0.63,10:49:41,33.664619,-114.007446,483,0.61,17
1091257,24.64,420.35,24,29.38,-9.31,3.87,0.19,10:49:42,33.664619,-114.007446,483,0.52,18
1092258,24.63,420.35,24,29.37,-8.9,4.26,0.11,10:49:43,33.664619,-114.007446,483,0.26,18
1093259,24.63,420.26,23,29.4,-8.74,4.16,0.06,10:49:44,33.664619,-114.007446,483,0.14,18
1094260,24.64,420.35,19,29.43,-8.72,4.69,-0.13,10:49:45,33.664619,-114.007446,483.1,0.13,18
1095261,24.65,420.43,18,29.38,-8.95,3.67,-0.23,10:49:46,33.664619,-114.007446,483.1,0.2,18
1096262,24.66,420.43,24,29.37,-8.8,3.62,0.09,10:49:47,33.664619,-114.007446,483.2,0.21,18
1097263,24.67,420.52,29,29.37,-8.34,0.83,1.11,10:49:48,33.664619,-114.007446,483.2,0.15,18
1098264,24.68,420.78,20,29.38,-9.54,-0.37,1.46,10:49:49,33.664619,-114.007446,483.2,0.3,18
1099265,24.68,421.04,19,29.4,-10.9,1.4,0.58,10:49:50,33.664619,-114.007446,483.2,0.08,18
1100266,24.67,421.3,19,29.35,-9.13,0.3,1.71,10:49:51,33.664619,-114.007446,483.2,0.15,18
1101267,24.66,421.47,19,29.4,-10.44,0.5,-0.35,10:49:52,33.664619,-114.007446,483.1,0.03,18
1102268,24.66,421.74,16,29.39,-11.16,3.25,-0.35,10:49:53,33.664619,-114.007446,483.1,0.16,18
1103269,24.65,421.65,16,29.41,-9.71,-0.06,1.56,10:49:54,33.664619,-114.007446,483.1,0.31,18
1104270,24.65,421.65,19,29.43,-9.95,3.47,0.67,10:49:55,33.664619,-114.007446,483,0.08,18
1105271,24.65,421.56,20,29.42,-7.09,6.61,1.78,10:49:56,33.664619,-114.007446,483,0.21,18
1106272,24.65,421.65,23,29.39,-8.69,2.8,1.92,10:49:57,33.664619,-114.007446,483,0.33,18
1107273,24.65,421.56,28,29.4,-8.59,4.9,2.86,10:49:58,33.664619,-114.007446,483,0.12,18
1108274,24.65,421.56,28,29.44,-10.33,3.36,2.64,10:49:59,33.664619,-114.007446,483.1,0.49,18
1109275,24.65,421.47,25,29.45,-8.81,3.1,2.86,10:50:00,33.664619,-114.007446,483.1,0.14,18
1110276,24.65,421.56,25,29.4,-9.56,3.76,2.59,10:50:01,33.664619,-114.007446,483.1,0.09,18
1111277,24.65,421.56,25,29.42,-9.18,-0.01,2.41,10:50:02,33.664619,-114.007446,483.1,0.46,18
1112278,24.66,421.56,26,29.4,-10.81,0.67,2.04,10:50:03,33.664619,-114.007446,483.1,0.09,18
1113279,24.66,421.47,30,29.39,-9.88,-0.13,3.41,10:50:04,33.664619,-114.007446,483.1,0.1,18
1114280,24.65,421.3,30,29.43,-9.79,1.57,2.2,10:50:05,33.664619,-114.007446,483.1,0.1,18
1115281,24.66,421.39,28,29.42,-9.7,0.75,1.84,10:50:06,33.664619,-114.007446,483.1,0.05,18
1116282,24.65,421.3,26,29.44,-9.56,1.22,1.58,10:50:07,33.664619,-114.007446,483.1,0.03,18
1117283,24.64,421.13,21,29.43,-9.16,2.7,-2.09,10:50:08,33.664619,-114.007446,483.1,0.08,18
1118284,24.64,420.87,23,29.42,-9.42,3.35,-0.44,10:50:09,33.664619,-114.007446,483.1,0.38,18
1119285,24.65,420.69,24,29.45,-9.06,4.31,0.54,10:50:10,33.664619,-114.007446,483.1,0.44,18
1120286,24.65,420.69,23,29.4,-8.49,4.91,1.01,10:50:11,33.664619,-114.007446,483.1,0.16,18
1121287,24.64,420.43,150,29.43,-6.01,3.82,7.13,10:50:12,33.664619,-114.007446,483.1,0.13,18
1122288,24.65,418.01,135,29.43,-5.63,3.51,7.27,10:50:13,33.664619,-114.007446,483.1,0.12,18
1123289,24.67,405.71,146,29.42,-5.23,3.51,7.84,10:50:14,33.664619,-114.007446,483.2,0.14,18
1124290,24.72,409.17,50,29.46,-5.86,3.58,6.85,10:50:15,33.664619,-114.007446,483.2,0.09,18
1125291,24.78,402.76,121,29.49,-6.02,3.42,6.81,10:50:16,33.664619,-114.007446,483.1,0.49,18
1126292,24.8,406.92,29,29.4,-6.82,6.5,4.37,10:50:17,33.664619,-114.007446,483.2,0.2,18
1127293,24.82,409.95,62,29.46,-0.02,9.71,2.12,10:50:18,33.664619,-114.007446,483.2,0.44,18
1128294,24.85,412.46,25,29.44,2.32,10.45,1.23,10:50:19,33.664619,-114.007446,483.1,0.35,18
1129295,24.88,414.28,23,29.46,1.62,9.74,1.43,10:50:20,33.664619,-114.007446,483,0.15,18
1130296,24.92,415.75,20,29.44,2.13,8.87,0.73,10:50:21,33.664619,-114.007446,483,0.06,18
1131297,24.95,416.79,24,29.47,1.92,9.53,0.82,10:50:22,33.664619,-114.007446,483,0.08,18
1132298,24.98,417.49,5,29.49,1.27,9.23,-0.13,10:50:23,33.664619,-114.007446,483,0.1,18
1133299,25,418.01,6,29.45,0.95,9.63,-0.8,10:50:24,33.664619,-114.007446,483,0.01,18
1134300,25.01,418.44,28,29.49,1.29,9.71,0.25,10:50:25,33.664619,-114.007446,483.1,0.13,18
1135301,25.03,418.79,26,29.5,2.29,9.12,0.3,10:50:26,33.664619,-114.007446,483.1,0.08,18
1136302,25.05,419.05,23,29.53,1.88,9.39,0.34,10:50:27,33.664619,-114.007446,483.1,0.03,18
1137303,25.07,419.22,23,29.5,1.92,9.34,0.55,10:50:28,33.664619,-114.007446,483.2,0.1,18
1138304,25.08,419.31,24,29.54,2.32,10.11,1.09,10:50:29,33.664619,-114.007446,483.2,0.1,18
1139305,25.09,419.39,31,29.52,1.81,8.66,1.57,10:50:30,33.664619,-114.007446,483.2,0.08,18
1140306,25.08,419.48,23,29.5,1.54,9.27,1.68,10:50:31,33.664619,-114.007446,483.2,0.22,18
1141307,25.04,419.65,28,29.53,1.34,10.22,0.65,10:50:32,33.664619,-114.007446,483.2,0.13,18
1142308,24.99,419.65,24,29.51,1.7,10.01,0.35,10:50:33,33.664619,-114.007446,483.3,0.08,18
1143309,24.94,419.83,23,29.47,1.02,10.6,0.36,10:50:34,33.664619,-114.007446,483.3,0.12,18
1144310,24.92,419.74,29,29.54,1.22,9.19,0.51,10:50:35,33.664619,-114.007446,483.3,0.06,18
1145311,24.88,419.83,26,29.54,1.91,9.29,0.64,10:50:36,33.664619,-114.007446,483.3,0.06,18
1146312,24.84,419.74,30,29.53,1.31,9.46,0.02,10:50:37,33.664619,-114.007446,483.3,0.08,18
1147313,24.81,419.91,40,29.56,-8.21,6.55,0.69,10:50:38,33.664619,-114.007446,483.3,0.1,18
1148314,24.76,420,35,29.52,-8.76,4.12,1.12,10:50:39,33.664619,-114.007446,483.3,0.28,18
1149315,24.71,420.17,38,29.53,-8.7,4.08,1.1,10:50:40,33.664623,-114.007446,483.3,0.08,18
1150316,24.66,420.35,38,29.54,-9.11,4.66,1.7,10:50:41,33.664623,-114.007446,483.4,0.09,18
1151317,24.61,420.43,38,29.55,-8.69,4.13,1.4,10:50:42,33.664623,-114.007446,483.4,0.05,18
1152318,24.56,420.61,39,29.57,-8.96,3.76,1.46,10:50:43,33.664623,-114.007446,483.4,0.03,18
1153319,24.52,420.61,39,29.54,-8.96,3.58,1.6,10:50:44,33.664623,-114.007446,483.4,0.07,18
1154320,24.49,420.52,38,29.54,-8.98,3.65,2.4,10:50:45,33.664623,-114.007446,483.4,0.08,18
1155321,24.44,420.52,39,29.57,-9.03,3.09,1.96,10:50:46,33.664623,-114.007446,483.4,0.4,18
1156322,24.4,420.52,39,29.52,-8.98,3.02,2.34,10:50:47,33.664623,-114.007446,483.4,0.09,18
1157323,24.36,420.52,42,29.56,-9.01,2.29,1.18,10:50:48,33.664623,-114.007446,483.5,0.16,18
1158324,24.34,420.52,38,29.58,-9.05,3.59,1.61,10:50:49,33.664623,-114.007446,483.5,0.05,18
1159325,24.31,420.52,40,29.6,-8.61,3.42,1.62,10:50:50,33.664623,-114.007446,483.5,0.09,18
1160326,24.29,420.52,40,29.55,-9.04,3.74,1.11,10:50:51,33.664623,-114.007446,483.5,0.3,18
1161327,24.27,420.52,40,29.57,-8.92,3.78,1.06,10:50:52,33.664623,-114.007446,483.5,0.15,18
1162328,24.25,420.52,40,29.55,-9.23,3.09,1.68,10:50:53,33.664623,-114.007446,483.5,0.08,18
1163329,24.22,420.35,42,29.61,-9.14,3.4,1.09,10:50:54,33.664623,-114.007446,483.5,0.03,18
1164330,24.2,420.35,39,29.58,-9.33,3.1,1.22,10:50:55,33.664623,-114.007446,483.5,0.17,18
1165331,24.16,420.17,39,29.62,-9.13,3.6,1.9,10:50:56,33.664623,-114.007446,483.5,0.09,18
1166332,24.12,420.17,38,29.6,-8.79,4.02,2.07,10:50:57,33.664623,-114.007446,483.5,0.13,18
1167333,24.09,420.26,39,29.6,-8.59,3.64,2.33,10:50:58,33.664623,-114.007446,483.5,0.12,18
1168334,24.06,420.35,43,29.6,-8.9,3.42,2.24,10:50:59,33.664623,-114.007446,483.5,0.09,18
1169335,24.02,420.43,42,29.62,-8.99,3.62,2.03,10:51:00,33.664623,-114.007446,483.5,0.02,18
1170336,23.99,420.52,40,29.59,-8.94,3.63,1.83,10:51:01,33.664623,-114.007446,483.5,0.01,18
1171337,23.95,420.52,43,29.6,-8.8,3.6,1.88,10:51:02,33.664623,-114.007446,483.5,0.09,18
1172338,23.93,420.52,42,29.61,-8.92,3.38,2.4,10:51:03,33.664623,-114.007446,483.5,0.01,18
1173339,23.9,420.43,42,29.6,-8.92,3.44,2.23,10:51:04,33.664623,-114.007446,483.5,0.07,18
1174340,23.88,420.52,42,29.64,-8.83,3.53,1.67,10:51:05,33.664623,-114.007446,483.5,0.02,18
1175341,23.87,420.52,36,29.61,-8.85,3.85,1.38,10:51:06,33.664623,-114.007446,483.5,0.02,18
1176342,23.85,420.61,39,29.62,-9.4,3.11,1.99,10:51:07,33.664623,-114.007446,483.5,0.14,18
1177343,23.82,420.69,38,29.6,-9.15,3.05,0.11,10:51:08,33.664623,-114.007446,483.5,0.07,18
1178344,23.8,420.61,38,29.61,-8.79,4.54,0.44,10:51:09,33.664623,-114.007446,483.6,0.28,18
1179345,23.79,420.61,42,29.64,-9.01,3.94,0.88,10:51:10,33.664623,-114.007446,483.6,0.06,18
1180346,23.78,420.43,49,29.64,-8.95,3.65,2,10:51:11,33.664623,-114.007446,483.6,0.02,18
1181347,23.76,420.43,49,29.59,-8.1,4.79,2.19,10:51:12,33.664623,-114.007446,483.5,0.05,18
1182348,23.75,420.61,24,29.63,-9.29,4.49,1.49,10:51:13,33.664623,-114.007446,483.5,0.05,18
1183349,23.75,420.43,6,29.65,-8.71,3.95,1.39,10:51:14,33.664623,-114.007446,483.5,0.17,18
1184350,23.75,420.43,5,29.65,-9.54,2.51,1.16,10:51:15,33.664623,-114.007446,483.3,0.1,18
1185351,23.77,420.43,6,29.62,-9.38,2.72,1.01,10:51:16,33.664623,-114.007446,483.2,0.22,18
1186352,23.79,420.61,8,29.59,-9.23,3.16,1.08,10:51:17,33.664623,-114.007446,483.3,0.08,18
1187353,23.8,420.69,8,29.6,-9.2,3.34,0.82,10:51:18,33.664623,-114.007446,483.4,0.05,18
1188354,23.82,420.61,8,29.62,-9.44,3.26,0.95,10:51:19,33.664627,-114.007446,483.4,0.09,18
1189355,23.84,420.61,6,29.62,-9.37,3.52,0.9,10:51:20,33.664627,-114.007446,483.4,0.13,18
1190356,23.86,420.52,5,29.64,-9.79,0.28,0.13,10:51:21,33.664627,-114.007446,483.4,0.01,18
1191357,23.89,420.35,6,29.64,-9.74,0.04,0.08,10:51:22,33.664627,-114.007446,483.4,0.1,18
1192358,23.91,420.17,6,29.64,-9.85,0.19,0.23,10:51:23,33.664627,-114.007446,483.4,0.08,18
1193359,23.94,420.09,6,29.65,-9.86,0.02,0.31,10:51:24,33.664627,-114.007446,483.4,0.07,17
1194360,23.97,420.09,6,29.66,-9.81,0.13,0.14,10:51:25,33.664627,-114.007446,483.4,0.44,18
1195361,23.99,420.26,14,29.67,-8.74,2.11,1.12,10:51:26,33.664627,-114.007446,483.4,0.22,18
1196362,24,420.43,4,29.62,-8.61,3.71,-0.47,10:51:27,33.664627,-114.007446,483.4,0.55,18
1197363,24.02,420.43,24,29.65,-9.15,3.64,0.21,10:51:28,33.664631,-114.007446,483.4,0.17,18
1198364,24.03,420.43,43,29.66,-8.33,2.93,3.26,10:51:29,33.664631,-114.007446,483.4,0.15,18
1199365,24.04,420.35,107,29.64,-6.35,2.73,6.39,10:51:30,33.664627,-114.007446,483.4,0.05,18
1200366,24.04,418.87,136,29.66,-6.81,2.44,7.08,10:51:31,33.664631,-114.007446,483.3,0.07,18
1201367,24.02,397.83,155,29.66,-6.19,1.92,8.11,10:51:32,33.664631,-114.007446,483.3,0.07,18
1202368,24.03,403.37,39,29.66,-8.81,1.26,4.93,10:51:33,33.664631,-114.007446,483.3,0.06,18
1203369,24.07,407.78,29,29.65,-10.07,-0.28,-0.27,10:51:34,33.664631,-114.007446,483.3,0.4,18
1204370,24.09,410.99,28,29.64,-8.67,-2.62,-3.07,10:51:35,33.664631,-114.007446,483.3,0.24,18
1205371,24.1,413.24,26,29.68,-8.73,-2.8,-3.4,10:51:36,33.664631,-114.007446,483.2,0.33,18
1206372,24.11,414.97,25,29.65,-8.63,-2.66,-3.4,10:51:37,33.664631,-114.007446,483.2,0.08,18
1207373,24.11,416.27,26,29.64,-8.75,-2.82,-3.43,10:51:38,33.664631,-114.007446,483.2,0.08,18
1208374,24.11,417.31,26,29.68,-8.67,-2.71,-3.6,10:51:39,33.664631,-114.007446,483.2,0.18,18
1209375,24.12,417.92,26,29.66,-8.77,-2.63,-3.47,10:51:40,33.664635,-114.007446,483.2,0.09,18
1210376,24.12,418.44,26,29.68,-8.85,-2.59,-3.42,10:51:41,33.664635,-114.007446,483.2,0.15,18
1211377,24.12,418.79,28,29.69,-8.81,-2.68,-3.4,10:51:42,33.664635,-114.007446,483.2,0.06,18
1212378,24.12,419.05,29,29.68,-8.51,-1.54,-3.67,10:51:43,33.664635,-114.007446,483.2,0.01,18
1213379,24.11,419.22,26,29.66,-9.08,-0.95,-3.71,10:51:44,33.664635,-114.007446,483.2,0.01,18
1214380,24.11,419.31,30,29.71,-8.81,-3.22,-4.46,10:51:45,33.664635,-114.007446,483.2,0.03,18
1215381,24.13,419.65,28,29.68,-9.58,2.41,-0.41,10:51:46,33.664635,-114.007446,483.2,0.1,18
1216382,24.13,419.74,18,29.7,-9.44,1.59,-0.46,10:51:47,33.664635,-114.007446,483.3,0.41,18
1217383,24.14,420,40,29.69,-9.63,1.28,1.75,10:51:48,33.664635,-114.007446,483.4,0.31,18
1218384,24.14,420.17,34,29.7,-8.67,3.1,3.01,10:51:49,33.664635,-114.007446,483.4,0.18,18
1219385,24.15,420.26,34,29.69,-9.29,3.25,1.82,10:51:50,33.664635,-114.007446,483.4,0.13,18
1220386,24.16,420.35,33,29.68,-9.91,4.18,2.52,10:51:51,33.664635,-114.007446,483.4,0.05,18
1221387,24.17,420.35,31,29.7,-8.74,3.22,1.56,10:51:52,33.664635,-114.007446,483.3,0.05,18
1222388,24.17,420.43,30,29.67,-8.85,3.31,1,10:51:53,33.664635,-114.007446,483.3,0.05,18
1223389,24.18,420.43,30,29.68,-9.5,4.14,0.84,10:51:54,33.664635,-114.007446,483.2,0.03,18
1224390,24.19,420.52,31,29.69,-9.07,3.22,1.14,10:51:55,33.664635,-114.007446,483.2,0.01,18
1225391,24.2,420.52,33,29.73,-9.39,2.85,1.37,10:51:56,33.664635,-114.007446,483.2,0.18,18
1226392,24.2,420.43,35,29.68,-9.5,2.77,0.94,10:51:57,33.664635,-114.007446,483.1,0.17,18
1227393,24.21,420.26,36,29.72,-9.27,3.41,-0.16,10:51:58,33.664635,-114.007446,483.2,0.05,18
1228394,24.22,420.17,35,29.65,-9.39,3.15,0.01,10:51:59,33.664635,-114.007446,483.2,0.28,18
1229395,24.24,420.09,31,29.71,-9.21,2.99,0.27,10:52:00,33.664635,-114.007446,483.2,0.14,18
1230396,24.25,420.17,34,29.69,-9.61,2.66,-0.79,10:52:01,33.664635,-114.007446,483.2,0.16,18
1231397,24.26,420.17,28,29.7,-9.6,2.15,-1.6,10:52:02,33.664635,-114.007446,483.3,0.08,17
1232398,24.28,420.17,29,29.72,-10.18,1.51,-0.59,10:52:03,33.664635,-114.007446,483.3,0.16,18
1233399,24.28,420.09,29,29.69,-10.19,1.27,0.61,10:52:04,33.664635,-114.007446,483.3,0.2,18
1234400,24.28,420.17,31,29.68,-9.91,0.83,0.84,10:52:05,33.664635,-114.007446,483.3,0.16,18
1235401,24.29,420,33,29.74,-7.61,4.6,0.12,10:52:06,33.664635,-114.007446,483.3,0.15,18
1236402,24.3,419.91,31,29.74,-8.17,5.34,0.16,10:52:07,33.664639,-114.007446,483.4,0.21,18
1237403,24.3,419.91,34,29.71,-8.64,4.72,1.23,10:52:08,33.664639,-114.007446,483.4,0.1,18
1238404,24.29,419.83,36,29.75,-7.52,2.95,1.12,10:52:09,33.664639,-114.007446,483.4,0.17,18
1239405,24.27,419.74,34,29.73,-10.28,2.39,0.11,10:52:10,33.664639,-114.007446,483.3,0.31,18
1240406,24.25,419.48,35,29.72,-8.54,4.7,-0.15,10:52:11,33.664639,-114.007446,483.2,0.59,18
1241407,24.25,419.31,34,29.79,-8.53,4.71,-0.17,10:52:12,33.664639,-114.007446,483.1,0.24,18
1242408,24.24,419.13,36,29.77,-8.54,4.71,-0.17,10:52:13,33.664639,-114.007446,483,0.15,18
1243409,24.24,419.05,34,29.79,-8.53,4.71,-0.15,10:52:14,33.664642,-114.007446,483.1,0.14,18
1244410,24.23,418.96,35,29.79,-8.53,4.7,-0.17,10:52:15,33.664642,-114.007446,483.2,0.03,18
1245411,24.24,418.96,35,29.8,-8.53,4.7,-0.15,10:52:16,33.664642,-114.007446,483.1,0.36,18
1246412,24.24,418.96,35,29.79,-8.54,4.7,-0.16,10:52:17,33.664642,-114.007446,483.1,0.1,18
1247413,24.23,418.87,35,29.69,-8.54,4.71,-0.16,10:52:18,33.664642,-114.007446,483.1,0.03,18
1248414,24.21,418.96,35,29.75,-8.55,4.7,-0.16,10:52:19,33.664642,-114.007446,483.1,0.05,18
1249415,24.2,419.13,35,29.81,-8.54,4.71,-0.17,10:52:20,33.664642,-114.007446,483.2,0.1,18
1250416,24.19,419.13,35,29.76,-8.53,4.7,-0.16,10:52:21,33.664642,-114.007446,483.1,0.13,18
1251417,24.19,419.13,35,29.82,-8.53,4.7,-0.16,10:52:22,33.664642,-114.007446,483.2,0.07,18
1252418,24.19,419.13,35,29.8,-8.53,4.71,-0.16,10:52:23,33.664642,-114.007446,483.2,0.06,18
1253419,24.2,419.13,35,29.82,-8.53,4.7,-0.17,10:52:24,33.664642,-114.007446,483.2,0.02,18
1254420,24.22,419.13,35,29.78,-8.53,4.71,-0.16,10:52:25,33.664642,-114.007446,483.2,0.09,18
1255421,24.23,419.13,35,29.8,-8.54,4.7,-0.16,10:52:26,33.664642,-114.007446,483.2,0.09,18
1256422,24.24,419.13,35,29.84,-8.53,4.7,-0.16,10:52:27,33.664642,-114.007446,483.2,0.15,18
1257423,24.24,419.13,35,29.85,-8.53,4.7,-0.16,10:52:28,33.664642,-114.007446,483.2,0.18,18
1258424,24.25,419.13,35,29.85,-8.54,4.71,-0.16,10:52:29,33.664642,-114.007446,483.2,0.02,17
1259425,24.26,419.13,35,29.86,-8.54,4.7,-0.17,10:52:30,33.664642,-114.007446,483.2,0.03,17
1260426,24.28,419.13,35,29.81,-8.54,4.7,-0.16,10:52:31,33.664642,-114.007446,483.2,0.15,17
1261427,24.28,419.13,35,29.85,-8.54,4.71,-0.16,10:52:32,33.664642,-114.007446,483.3,0.22,17
1262428,24.3,419.05,35,29.86,-8.53,4.7,-0.16,10:52:33,33.664642,-114.007446,483.3,0.13,17
1263429,24.32,419.05,34,29.85,-8.54,4.69,-0.15,10:52:34,33.664642,-114.007446,483.2,0.1,17
1264430,24.34,419.05,35,29.87,-8.53,4.7,-0.16,10:52:35,33.664642,-114.007446,483.2,0.08,17
1265431,24.36,419.05,35,29.78,-8.53,4.7,-0.16,10:52:36,33.664642,-114.007446,483.2,0.1,17
1266432,24.38,419.05,35,29.85,-8.54,4.71,-0.16,10:52:37,33.664642,-114.007446,483.2,0.08,17
1267433,24.39,419.05,35,29.84,-8.54,4.7,-0.15,10:52:38,33.664642,-114.007446,483.2,0.02,17
1268434,24.4,419.05,34,29.84,-8.53,4.7,-0.15,10:52:39,33.664642,-114.007446,483.2,0.05,17
1269435,24.41,419.05,35,29.82,-8.52,4.7,-0.17,10:52:40,33.664642,-114.007446,483.2,0.02,17
1270436,24.4,419.13,34,29.9,-8.54,4.7,-0.17,10:52:41,33.664642,-114.007446,483.2,0.05,17
1271437,24.4,419.13,35,29.87,-8.53,4.7,-0.16,10:52:42,33.664642,-114.007446,483.2,0.12,17
1272438,24.4,419.05,35,29.87,-8.53,4.7,-0.16,10:52:43,33.664642,-114.007446,483.2,0.06,16
1273439,24.41,419.13,35,29.87,-8.53,4.7,-0.16,10:52:44,33.664642,-114.007446,483.2,0.07,16
1274440,24.42,419.13,34,29.86,-8.54,4.7,-0.16,10:52:45,33.664642,-114.007446,483.2,0.05,17
1275441,24.44,419.13,35,29.85,-8.54,4.7,-0.15,10:52:46,33.664642,-114.007446,483.2,0.03,17
1276442,24.45,419.13,35,29.89,-8.53,4.7,-0.16,10:52:47,33.664642,-114.007446,483.2,0.02,17
1277443,24.47,419.22,35,29.87,-8.54,4.69,-0.16,10:52:48,33.664642,-114.007446,483.2,0.06,17
1278444,24.49,419.13,35,29.87,-8.54,4.69,-0.16,10:52:49,33.664642,-114.007446,483.2,0.06,17
1279445,24.51,419.13,34,29.88,-8.53,4.71,-0.16,10:52:50,33.664642,-114.007446,483.2,0.01,17
1280446,24.53,419.13,35,29.86,-8.54,4.7,-0.16,10:52:51,33.664642,-114.007446,483.2,0.02,17
1281447,24.55,419.05,35,29.87,-8.54,4.7,-0.16,10:52:52,33.664642,-114.007446,483.2,0.01,17
1282448,24.57,419.05,35,29.91,-8.53,4.7,-0.17,10:52:53,33.664642,-114.007446,483.2,0.01,17
1283449,24.58,418.96,35,29.87,-8.54,4.71,-0.16,10:52:54,33.664642,-114.007446,483.2,0.03,17
1284450,24.6,418.96,35,29.89,-8.54,4.71,-0.16,10:52:55,33.664642,-114.007446,483.2,0.01,17
1285451,24.63,418.87,36,29.88,-8.54,4.7,-0.16,10:52:56,33.664642,-114.007446,483.2,0.01,18
1286452,24.65,418.96,35,29.91,-8.53,4.71,-0.16,10:52:57,33.664642,-114.007446,483.2,0,17
1287453,24.67,418.96,35,29.89,-8.53,4.7,-0.17,10:52:58,33.664642,-114.007446,483.2,0.08,18
1288454,24.68,418.87,35,29.94,-8.54,4.7,-0.16,10:52:59,33.664642,-114.007446,483.2,0.17,18
1289455,24.7,418.96,35,29.91,-8.53,4.69,-0.17,10:53:00,33.664642,-114.007446,483.3,0.12,18
1290456,24.71,418.96,35,29.9,-8.53,4.7,-0.16,10:53:01,33.664642,-114.007446,483.2,0.1,18
1291457,24.73,418.87,35,29.91,-8.54,4.7,-0.16,10:53:02,33.664642,-114.007446,483.2,0.09,18
1292458,24.75,418.96,35,29.9,-8.53,4.7,-0.17,10:53:03,33.664639,-114.007446,483.3,0.21,18
1293459,24.77,418.87,35,29.91,-8.53,4.72,-0.18,10:53:04,33.664639,-114.007446,483.3,0.06,18
1294460,24.78,418.96,35,29.9,-8.53,4.7,-0.16,10:53:05,33.664639,-114.007446,483.2,0.1,18
1295461,24.79,418.87,35,29.92,-8.53,4.7,-0.16,10:53:06,33.664639,-114.007446,483.3,0.06,18
1296462,24.81,418.87,35,29.89,-8.54,4.69,-0.15,10:53:07,33.664639,-114.007446,483.2,0.09,18
1297463,24.83,418.96,35,29.94,-8.54,4.7,-0.16,10:53:08,33.664639,-114.007446,483.3,0.09,18
1298464,24.85,418.87,35,29.94,-8.53,4.7,-0.15,10:53:09,33.664639,-114.007446,483.2,0.08,18
1299465,24.86,418.87,35,29.94,-8.54,4.71,-0.16,10:53:10,33.664639,-114.007446,483.3,0.08,18
1300466,24.88,418.87,35,29.94,-8.54,4.7,-0.15,10:53:11,33.664639,-114.007446,483.3,0.06,18
1301467,24.89,418.87,35,29.96,-8.53,4.7,-0.16,10:53:12,33.664639,-114.007446,483.3,0.08,18
1302468,24.9,418.87,34,29.95,-8.54,4.7,-0.15,10:53:13,33.664639,-114.007446,483.3,0.07,18
1303469,24.91,418.79,34,29.95,-8.53,4.71,-0.16,10:53:14,33.664639,-114.007446,483.2,0.06,18
1304470,24.93,418.87,34,29.96,-8.53,4.7,-0.16,10:53:15,33.664639,-114.007446,483.3,0.08,18
1305471,24.95,418.96,34,29.93,-8.54,4.7,-0.17,10:53:16,33.664639,-114.007446,483.2,0.26,18
1306472,24.97,418.96,34,29.97,-8.53,4.7,-0.17,10:53:17,33.664639,-114.007446,483.3,0.17,18
1307473,24.99,418.96,34,29.95,-8.54,4.71,-0.16,10:53:18,33.664639,-114.007446,483.3,0.07,18
1308474,25.01,418.87,34,29.93,-8.54,4.71,-0.17,10:53:19,33.664639,-114.007446,483.3,0.06,18
1309475,25.03,418.87,34,29.94,-8.54,4.7,-0.17,10:53:20,33.664639,-114.007446,483.3,0.05,18
1310476,25.05,418.87,34,29.97,-8.54,4.7,-0.16,10:53:21,33.664639,-114.007446,483.3,0.15,18
1311477,25.06,418.7,35,29.93,-8.53,4.7,-0.15,10:53:22,33.664639,-114.007446,483.3,0.09,18
1312478,25.08,418.79,35,29.93,-8.54,4.71,-0.15,10:53:23,33.664639,-114.007446,483.3,0.05,18
1313479,25.06,418.87,34,29.97,-8.54,4.7,-0.16,10:53:24,33.664639,-114.007446,483.3,0.05,18
1314480,25.05,418.96,34,29.96,-8.53,4.71,-0.15,10:53:25,33.664639,-114.007446,483.3,0.06,18
1315481,25.05,418.96,34,29.98,-8.54,4.69,-0.16,10:53:26,33.664639,-114.007446,483.3,0.06,18
1316482,25.05,418.96,34,29.97,-8.54,4.7,-0.16,10:53:27,33.664639,-114.007446,483.3,0.07,18
1317483,25.06,418.96,34,30.05,-8.52,4.7,-0.16,10:53:28,33.664639,-114.007446,483.4,0.09,18
1318484,25.07,418.87,35,30,-8.53,4.69,-0.17,10:53:29,33.664639,-114.007446,483.4,0.09,18
1319485,25.08,418.87,35,29.97,-8.55,4.7,-0.16,10:53:30,33.664639,-114.007446,483.4,0.05,18
1320486,25.07,418.87,35,29.96,-8.54,4.69,-0.16,10:53:31,33.664639,-114.007446,483.4,0.15,18
1321487,25.05,418.96,35,30.04,-8.52,4.7,-0.17,10:53:32,33.664639,-114.007446,483.5,0.15,18
1322488,25.04,419.05,35,29.99,-8.53,4.71,-0.17,10:53:33,33.664639,-114.007446,483.5,0.07,18
1323489,25.04,418.87,35,29.98,-8.54,4.71,-0.15,10:53:34,33.664639,-114.007446,483.5,0.05,18
1324490,25.02,418.7,34,30.04,-8.57,4.69,-0.15,10:53:35,33.664639,-114.007446,483.4,0.14,18
1325491,25.01,418.7,35,30.05,-8.51,4.72,-0.17,10:53:36,33.664639,-114.007446,483.4,0.06,18
1326492,24.99,418.7,35,29.97,-8.53,4.71,-0.17,10:53:37,33.664639,-114.007446,483.4,0.07,17
1327493,24.96,418.7,35,29.98,-8.56,4.69,-0.15,10:53:38,33.664635,-114.007446,483.4,0.08,17
1328494,24.94,418.7,35,30.02,-8.53,4.7,-0.16,10:53:39,33.664635,-114.007446,483.3,0.08,17
1329495,24.94,418.7,35,30.04,-8.55,4.7,-0.15,10:53:40,33.664635,-114.007446,483.3,0.08,17
1330496,24.95,418.79,35,30.05,-8.53,4.7,-0.16,10:53:41,33.664635,-114.007439,483.3,0.09,17
1331497,24.96,418.7,35,30.06,-8.53,4.7,-0.16,10:53:42,33.664635,-114.007439,483.3,0.1,17
1332498,24.97,418.79,35,30.07,-8.53,4.7,-0.15,10:53:43,33.664635,-114.007439,483.3,0.09,17
1333499,24.98,418.79,35,30.01,-8.52,4.7,-0.17,10:53:44,33.664635,-114.007439,483.3,0.09,18
1334500,24.98,418.87,35,30.05,-8.55,4.69,-0.16,10:53:45,33.664635,-114.007439,483.2,0.07,18
1335501,24.98,418.87,35,30.04,-8.53,4.7,-0.16,10:53:46,33.664635,-114.007439,483.2,0.07,18
1336502,24.98,418.79,35,30.06,-8.53,4.7,-0.16,10:53:47,33.664635,-114.007439,483.2,0.01,18
1337503,24.99,418.79,34,30.06,-8.54,4.7,-0.16,10:53:48,33.664635,-114.007439,483.3,0.08,18
1338504,24.98,418.87,34,30.06,-8.53,4.7,-0.16,10:53:49,33.664635,-114.007439,483.3,0.08,18
1339505,24.96,418.87,34,30.08,-8.53,4.69,-0.16,10:53:50,33.664635,-114.007439,483.3,0.07,18
1340506,24.93,418.96,34,30.02,-8.55,4.7,-0.16,10:53:51,33.664635,-114.007439,483.3,0.06,18
1341507,24.91,418.96,35,30.12,-8.54,4.7,-0.16,10:53:52,33.664635,-114.007439,483.3,0.07,18
1342508,24.9,418.96,35,30.06,-8.53,4.7,-0.16,10:53:53,33.664635,-114.007439,483.3,0.14,18
