time_since_start,bme_temp,bme_alt,uv,ism_temp,acc_x,acc_y,acc_z,gps_time,latitude,longitude,gps_alt,speed,sats
11112270,-11.29,16955.13,208,0.51,-5.79,1.13,6.92,1:36:42,34.072166,-113.165337,17540.4,54.51,13
11113271,-11.4,16967.45,277,0.52,4.3,-0.22,11.32,1:36:43,34.07225,-113.165085,17520.2,51.04,13
11114272,-11.55,16970.69,194,0.5,-6.86,-9.57,10.59,1:36:44,34.072308,-113.164841,17500.9,55.34,13
11115273,-11.69,16987.58,201,0.48,14.34,5.94,10.1,1:36:45,34.072338,-113.164566,17481.6,57.96,13
11116274,-11.83,16961.61,243,0.5,-8.78,3.43,7.45,1:36:46,34.072407,-113.164253,17463.5,75.75,13
11117275,-11.98,16959.67,298,0.48,-7.13,4.4,12.77,1:36:47,34.072495,-113.163918,17445.1,65.49,13
11118276,-12.1,16955.78,465,0.5,6.09,-0.46,13.4,1:36:48,34.072617,-113.163651,17426.9,65.49,13
11119277,-12.21,16960.96,235,0.5,-11.08,-5.88,8.95,1:36:49,34.072758,-113.163406,17408.1,58.86,13
11120278,-12.3,16938.97,176,0.49,10,3.13,2.58,1:36:50,34.072838,-113.163147,17390.5,55.93,13
11121279,-12.39,16922.2,264,0.48,-12.8,9.29,8.87,1:36:51,34.072918,-113.162865,17371.3,60.98,13
11122280,-12.54,16908.69,277,0.47,8.88,23.25,15.28,1:36:52,34.073009,-113.162582,17353.3,65.77,13
11123281,-12.65,16894.57,253,0.43,-12.19,1.42,6.25,1:36:53,34.073051,-113.162254,17336.8,76.12,13
11124282,-12.75,16880.47,327,0.47,39.44,-5.81,-4.03,1:36:54,34.073135,-113.161896,17320.4,76.2,12
11125283,-12.85,16920.27,468,0.46,8.36,-0.49,7.99,1:36:55,34.073273,-113.161629,17304.3,54.48,13
11126284,-12.92,16892.64,435,0.45,-6.15,-8.15,10.01,1:36:56,34.073349,-113.161354,17288.7,63.09,13
11127285,-12.96,16865.13,226,0.45,-10.95,2.36,12.49,1:36:57,34.073452,-113.161087,17273,55.16,13
11128286,-12.99,16842.19,31,0.42,-9.75,4.14,8.33,1:36:58,34.073517,-113.160881,17253.1,43.17,13
11129287,-13.08,16817.43,128,0.45,10.16,3.18,7.35,1:36:59,34.073593,-113.160637,17234,68.91,13
11130288,-13.26,16743.71,376,0.43,11.54,-0.61,13.56,1:37:00,34.073689,-113.160316,17215.9,66.59,13
11131289,-13.05,16738.7,259,0.45,22.69,-11.88,-0.6,1:37:01,34.073772,-113.160004,17198.8,74.53,13
11132290,-13.21,16809.83,419,0.4,-3.61,-10.45,10.14,1:37:02,34.073875,-113.159668,17183.2,77.19,13
11133291,-13.34,16792.76,450,0.41,5.41,-8.8,8.6,1:37:03,34.073975,-113.159348,17170.2,89.72,12
11134292,-13.4,16761.9,292,0.4,-13.62,9.03,10.09,1:37:04,34.074047,-113.159042,17160.8,69.83,13
11135293,-13.46,16738.07,360,0.36,-12.18,11.29,6.46,1:37:05,34.074097,-113.158783,17141.8,48.41,13
11136294,-13.54,16691.91,204,0.36,-19.76,-2.27,9.48,1:37:06,34.074142,-113.158592,17121.8,47.74,13
11137295,-13.59,16675.15,175,0.39,-12.59,5.76,9.49,1:37:07,34.074162,-113.158295,17103.2,64.53,13
11138296,-13.63,16659.67,350,0.32,4.69,5.11,11.91,1:37:08,34.07423,-113.158043,17084.6,49.91,13
11139297,-13.75,16646.08,345,0.34,-15.87,-16.29,9.97,1:37:09,34.074268,-113.157776,17065.9,70.52,12
11140298,-13.87,16618.98,228,0.32,-3.51,2.24,3.76,1:37:10,34.074303,-113.157425,17048.5,63.24,13
11141299,-13.94,16581.6,302,0.32,-1.32,-0.1,9.45,1:37:11,34.074368,-113.157158,17030.1,61.83,13
11142300,-14.05,16645.46,401,0.27,-1.34,-7.95,6.67,1:37:12,34.074478,-113.156876,17012.4,66.03,13
11143301,-14.14,16617.75,211,0.35,1.76,1.8,11.04,1:37:13,34.074509,-113.156586,16996.1,50.33,13
11144302,-14.19,16596.28,255,0.29,-3.29,-5.41,10.82,1:37:14,34.07457,-113.156349,16977.8,63.34,13
11145303,-14.27,16650.4,391,0.23,-26.54,22.46,-9.38,1:37:15,34.074669,-113.156029,16961.3,69.24,13
11146304,-14.36,16650.4,311,0.25,9.52,-2.09,5.9,1:37:16,34.074738,-113.155739,16945.3,44.9,12
11147305,-14.4,16609.77,235,0.25,-7.24,-1.74,2.12,1:37:17,34.074799,-113.155518,16930.5,63.54,13
11148306,-14.44,16569.39,141,0.29,2.76,2.72,7.17,1:37:18,34.074837,-113.155159,16912.2,75.75,13
11149307,-14.58,16542.6,253,0.21,-5.75,-4.93,11.35,1:37:19,34.074898,-113.154816,16892.4,68.39,13
11150308,-14.73,16485.75,270,0.17,0.89,14.7,12.52,1:37:20,34.074959,-113.154495,16874.9,80.67,13
11151309,-14.85,16459.91,220,0.23,-6.61,4.72,16.27,1:37:21,34.075039,-113.154099,16856.7,82.01,13
11152310,-14.78,16493.58,158,0.14,0.83,-1.34,9.5,1:37:22,34.075161,-113.153793,16838.9,65.08,13
11153311,-14.87,16443.73,415,0.23,-1.91,-7.24,8.92,1:37:23,34.075253,-113.153488,16823.3,68.31,13
11154312,-14.98,16426.4,304,0.2,-1.89,9.36,13.47,1:37:24,34.075321,-113.153191,16806.3,56.21,13
11155313,-15.1,16399.01,146,0.13,-6.92,7.35,10.79,1:37:25,34.075375,-113.152962,16788.3,50.38,13
11156314,-15.22,16380.02,131,0.16,-5.29,-5.32,11.71,1:37:26,34.075394,-113.152664,16770.2,68.19,13
11157315,-15.34,16365.81,68,0.2,-1.54,-9.01,7.59,1:37:27,34.075417,-113.152336,16751.7,71.98,13
11158316,-15.48,16348.1,221,0.09,4.16,-10.13,9.18,1:37:28,34.075474,-113.151978,16735,76.85,13
11159317,-15.61,16304.02,376,0.13,1.18,3.13,9.2,1:37:29,34.075542,-113.151619,16717.6,74.44,13
11160318,-15.58,16366.4,356,0.1,-0.13,-4.58,10.74,1:37:30,34.075649,-113.151299,16699.8,71.01,13
11161319,-15.69,16340.44,291,0.04,3.84,-2.56,12.69,1:37:31,34.075752,-113.151016,16681.7,63.34,13
11162320,-15.78,16294.07,282,0.1,4.5,4.45,8.66,1:37:32,34.075806,-113.150749,16669.3,66.25,13
11163321,-15.84,16277.13,150,0.08,-6.02,0.73,11.85,1:37:33,34.075886,-113.150467,16648.6,80.52,13
11164322,-15.96,16264.31,132,0.05,-7.62,3.31,10.47,1:37:34,34.075932,-113.150116,16639.1,74.5,13
11165323,-16.12,16238.16,184,0.03,0.66,8.77,9.28,1:37:35,34.075939,-113.149796,16620.5,75.39,13
11166324,-16.32,16197.11,298,0.04,1.98,3.83,9.06,1:37:36,34.076015,-113.149437,16601.9,81.74,13
11167325,-16.47,16254.42,418,0.01,2.82,-6.27,14.26,1:37:37,34.076141,-113.149055,16591.2,82.04,13
11168326,-16.58,16231.78,473,0,2.1,-4.17,11.28,1:37:38,34.076256,-113.14872,16580.6,81.59,13
11169327,-16.67,16271.88,357,0.02,3.6,-6.04,10.76,1:37:39,34.076389,-113.148361,16595.7,89.89,13
11170328,-16.74,16216.73,221,-0.01,5.77,7.91,16.53,1:37:40,34.076508,-113.148071,16579.8,62.26,12
11171329,-16.8,16190.2,34,0,-4.36,-10.05,8.94,1:37:41,34.076565,-113.147728,16564.9,59.45,13
11172330,-16.87,16163.77,114,-0.01,6.87,1.94,7.82,1:37:42,34.076618,-113.147415,16544,77.93,13
11173331,-17.02,16135.16,197,-0.01,2.29,-0.28,12.15,1:37:43,34.076702,-113.147057,16523.8,79.02,13
11174332,-17.15,16114.06,280,0,3.35,-2.88,12.16,1:37:44,34.076809,-113.14669,16504.2,88.27,13
11175333,-17.3,16094.17,443,-0.02,-2.66,10.55,12.36,1:37:45,34.076965,-113.146332,16483.6,81.12,13
11176334,-17.4,16059.08,482,-0.01,-4.33,0.31,9.58,1:37:46,34.077126,-113.146034,16463,67.11,13
11177335,-17.46,16050.06,304,-0.02,-3.68,1.94,15.34,1:37:47,34.077259,-113.145752,16442.4,61.37,13
11178336,-17.49,15728.18,238,-0.03,-4.3,0.38,9.63,1:37:48,34.07737,-113.145508,16422.5,53.31,13
11179337,-17.57,15786.99,166,-0.02,-2.46,3.01,10.32,1:37:49,34.077435,-113.145279,16400.5,67.99,13
11180338,-17.71,15816.87,245,-0.02,2.65,-0.9,10.03,1:37:50,34.077499,-113.144936,16380.2,72.84,13
11181339,-17.89,15791.87,265,-0.05,1.22,-6.81,9.37,1:37:51,34.077568,-113.144592,16360.9,83.54,13
11182340,-18.06,15824.49,400,-0.05,-2.53,1.92,10.97,1:37:52,34.077713,-113.144257,16339.4,78.59,13
11183341,-18.17,15864.39,155,-0.09,-15.97,1.53,12.58,1:37:53,34.077854,-113.143936,16319,74.71,13
11184342,-18.25,15903.98,273,-0.07,-5.22,-7.67,11.68,1:37:54,34.078022,-113.143654,16300.3,63.11,13
11185343,-18.29,15859.46,326,-0.09,0.09,-2.37,5.85,1:37:55,34.078144,-113.143387,16281.3,60.36,13
11186344,-18.19,15863.29,233,-0.13,1.89,-1.84,12.51,1:37:56,34.078213,-113.143105,16263.6,60.88,13
11187345,-18.29,15862.75,107,-0.14,-5.21,-9.92,12.56,1:37:57,34.078281,-113.142822,16245.8,73.64,13
11188346,-18.41,15849.06,242,-0.11,-2.64,-0.47,6.37,1:37:58,34.078365,-113.142448,16223.5,82.92,13
11189347,-18.56,15840.31,186,-0.16,-5.24,-5.39,3.82,1:37:59,34.078499,-113.142105,16208.7,77.54,13
11190348,-18.68,15858.91,25,-0.14,2.17,-0.8,14.43,1:38:00,34.078682,-113.141785,16189.7,84.25,13
11191349,-18.76,15860.56,347,-0.18,-3.22,2.88,11.35,1:38:01,34.078873,-113.141495,16170.7,69.98,13
11192350,-18.85,15838.67,283,-0.16,6.81,-2.29,8.48,1:38:02,34.079037,-113.141251,16150.7,60.39,13
11193351,-18.88,15817.95,226,-0.23,-1.96,-10.16,9.41,1:38:03,34.079174,-113.140991,16131.5,64.48,13
11194352,-18.93,15798.93,151,-0.27,-1.96,-3.33,13.23,1:38:04,34.079285,-113.140724,16112.8,62.38,13
11195353,-19.01,15780.49,180,-0.23,0.96,1.85,8.79,1:38:05,34.079365,-113.140427,16097.2,66.99,13
11196354,-19.11,15759.41,238,-0.3,-8.51,5.72,9.1,1:38:06,34.079483,-113.14006,16080.6,83.59,13
11197355,-19.28,15743.78,267,-0.29,-0.12,-5.76,11.91,1:38:07,34.079655,-113.139709,16062.3,81.92,13
11198356,-19.39,15737.32,440,-0.26,-4.78,-1.7,14.06,1:38:08,34.07983,-113.139381,16043.7,83.61,13
11199357,-19.49,15693.35,311,-0.3,-1.94,4.71,6.39,1:38:09,34.080029,-113.139084,16026,76.62,13
11200358,-19.26,15683.74,362,-0.36,-6.6,8.15,6.87,1:38:10,34.0802,-113.138802,16008.9,68.04,13
11201359,-19.37,15633.23,235,-0.31,2.31,-5.31,14.94,1:38:11,34.080318,-113.138535,15991,62.1,13
11202360,-19.46,15611.55,190,-0.31,-7.37,2.37,14.87,1:38:12,34.080421,-113.138275,15973.6,59.93,13
11203361,-19.55,15612.08,203,-0.35,-3.61,-4.82,8.74,1:38:13,34.080498,-113.137947,15954.8,76.85,13
11204362,-19.68,15606.27,316,-0.37,-0.88,-4.02,10.54,1:38:14,34.080631,-113.137611,15937.5,70.27,13
11205363,-19.82,15683.21,366,-0.41,-3.35,-3.49,10.37,1:38:15,34.08078,-113.137321,15921,79.41,13
11206364,-19.97,15650.2,270,-0.38,5.79,0.23,9.02,1:38:16,34.080975,-113.137024,15903.7,74.69,13
11207365,-20.07,15624.76,391,-0.42,-8.03,-10.84,7,1:38:17,34.081154,-113.136742,15886.4,76.58,13
11208366,-20.15,15685.34,342,-0.43,7.81,-6.64,9.56,1:38:18,34.081329,-113.136475,15872.2,62,13
11209367,-20.19,15641.18,209,-0.43,52.22,0.6,-12.77,1:38:19,34.08147,-113.13623,15858.7,68.45,13
11210368,-20.23,15413.32,245,-0.5,-0.96,2.5,7.49,1:38:20,34.081604,-113.135857,15841.5,91.5,13
11211369,-20.3,15453.44,278,-0.5,-4.32,-7.11,13.47,1:38:21,34.081757,-113.135498,15826.1,76.28,13
11212370,-20.37,15453.44,302,-0.49,9.67,3.27,7.56,1:38:22,34.08189,-113.135139,15810.2,91.25,13
11213371,-20.28,15440.55,376,-0.51,-3.32,6.63,0.76,1:38:23,34.082069,-113.134743,15792.3,83.95,13
11214372,-20.12,15445.7,439,-0.52,-3.04,2.55,13.1,1:38:24,34.082226,-113.134453,15775.4,67.96,13
11215373,-20.21,15446.22,258,-0.51,0.02,-0.34,14.18,1:38:25,34.082352,-113.134171,15759,62.52,13
11216374,-20.29,15437.46,125,-0.52,-1.55,-3.01,14.03,1:38:26,34.082451,-113.133911,15743,57.25,13
11217375,-20.37,15429.75,157,-0.52,-12.67,3.4,-0.59,1:38:27,34.082523,-113.133629,15724.9,69.37,13
11218376,-20.51,15417.43,345,-0.51,-8.94,-3.29,6.27,1:38:28,34.082623,-113.133301,15709.2,68.98,13
11219377,-20.61,15386.2,397,-0.54,6.56,2.46,9.55,1:38:29,34.082737,-113.133018,15695.1,73.04,13
11220378,-20.69,15378.54,244,-0.52,-7.86,-4.47,10.67,1:38:30,34.082893,-113.132698,15679.2,75.45,13
11221379,-20.73,15312.55,384,-0.55,1.34,1.2,9.52,1:38:31,34.08308,-113.132439,15662.4,67.18,13
11222380,-20.81,15318.61,358,-0.58,1.41,-3.64,8.84,1:38:32,34.083199,-113.132133,15646.7,66.62,13
11223381,-20.87,15335.83,318,-0.55,-0.57,0.62,16.04,1:38:33,34.083298,-113.131828,15632.1,70.23,13
11224382,-20.9,15325.7,187,-0.6,7,5.5,16.97,1:38:34,34.083378,-113.13147,15613.7,78.13,13
11225383,-20.95,15304.97,78,-0.59,-4.68,9.35,7.18,1:38:35,34.083439,-113.131096,15597.2,73.26,13
11226384,-21.06,15284.31,197,-0.64,5.85,-8.1,6.22,1:38:36,34.083549,-113.130775,15580.9,78.5,13
11227385,-21.21,15278.28,123,-0.64,-5.44,-3.79,14.14,1:38:37,34.083683,-113.130409,15565.9,83.68,13
11228386,-21.33,15242.18,464,-0.64,1.02,3.39,11.16,1:38:38,34.083832,-113.130089,15550.3,75.18,12
11229387,-21.35,15286.33,421,-0.71,0.77,-0.38,11.3,1:38:39,34.084042,-113.129776,15535.9,77.74,13
11230388,-21.4,15245.18,322,-0.7,-0.74,5.68,8.56,1:38:40,34.084202,-113.129501,15522.1,67.98,13
11231389,-21.46,15217.23,267,-0.73,-2.12,-0.45,11.77,1:38:41,34.084316,-113.129219,15505.5,62.27,13
11232390,-21.52,15208.26,182,-0.7,-3.94,6.14,11.92,1:38:42,34.084408,-113.128937,15488.7,66.04,13
11233391,-21.6,15197.82,36,-0.71,-4.25,5.67,11.29,1:38:43,34.084461,-113.128601,15472.8,88.78,13
11234392,-21.74,15176.99,278,-0.76,-2.72,4.62,7.65,1:38:44,34.084568,-113.128227,15457.5,83.6,12
11235393,-21.86,15165.61,414,-0.77,-4.72,-1.53,11.33,1:38:45,34.084721,-113.127869,15440.7,82.43,13
11236394,-21.96,15127.15,409,-0.78,-3.57,-5.15,10.46,1:38:46,34.084866,-113.127525,15425.2,79.42,13
11237395,-22,15119.77,319,-0.79,5.92,1.58,11.34,1:38:47,34.085037,-113.127243,15407.1,70.75,13
11238396,-22.01,15057.67,317,-0.79,-1.67,2.32,9.44,1:38:48,34.085163,-113.126976,15389.6,62.14,13
11239397,-22.07,15023.2,21,-0.78,-1.88,-3.27,11.53,1:38:49,34.085243,-113.126678,15374.2,62.35,13
11240398,-22.16,15018.36,157,-0.84,-5.3,-11.28,13.59,1:38:50,34.085316,-113.126358,15357.6,72.31,13
11241399,-22.28,15021.26,143,-0.84,-6.75,8.04,9.97,1:38:51,34.085384,-113.125999,15343.4,89.67,13
11242400,-22.41,15024.17,264,-0.82,-3.39,-0.31,5.47,1:38:52,34.085503,-113.125648,15330.3,75.64,13
11243401,-22.55,15035.32,450,-0.95,0,-7.22,16.75,1:38:53,34.085648,-113.125313,15314.3,81.41,13
11244402,-22.65,15031.44,421,-0.96,-4.8,-5.72,13.17,1:38:54,34.085815,-113.124992,15297.3,77.49,13
11245403,-22.75,15063.03,225,-0.96,1.31,6.92,11.91,1:38:55,34.085976,-113.124725,15281.1,58.41,13
11246404,-22.77,15028.05,228,-1.02,-5.85,11.8,12.89,1:38:56,34.08609,-113.124481,15265.9,63.57,13
11247405,-22.74,15010.62,160,-0.96,4,-4.71,14.16,1:38:57,34.086185,-113.124184,15249.8,65.76,13
11248406,-22.86,14986.01,200,-0.99,-4.76,-6.2,8.95,1:38:58,34.086254,-113.123856,15234.6,72.36,13
11249407,-22.97,14955.73,249,-0.98,-3.83,-7.56,8.93,1:38:59,34.086349,-113.123505,15218.8,78.67,13
11250408,-23.07,14946.62,382,-1.02,-0.01,1.59,8.29,1:39:00,34.086479,-113.123177,15203,74.87,13
11251409,-23.09,14868.04,443,-1,-3.74,-0.74,14.09,1:39:01,34.086628,-113.122856,15188.7,79.97,13
11252410,-22.84,14872.77,325,-1.02,-7.06,-7.12,14.86,1:39:02,34.086826,-113.122559,15171.9,73.83,13
11253411,-22.93,14857.62,165,-1.01,-9.64,-3.58,4.74,1:39:03,34.086975,-113.122307,15156.9,60.83,13
11254412,-23.02,14860.93,155,-1.05,5.65,6.58,10.31,1:39:04,34.087097,-113.121986,15143.7,77.23,13
11255413,-23.12,14856.68,313,-1.05,-3.46,7.14,10.38,1:39:05,34.087234,-113.121666,15128.6,72.48,13
11256414,-23.23,14842.98,385,-1.03,0.05,-3.84,8.71,1:39:06,34.08736,-113.121307,15113,90.19,13
11257415,-23.29,14854.79,157,-1.06,1.69,-3.56,10.83,1:39:07,34.087486,-113.120895,15099,85.06,13
11258416,-23.35,14795.02,343,-1.07,0.7,-1.21,11.13,1:39:08,34.087616,-113.120522,15085.8,81.72,13
11259417,-22.93,14797.36,216,-1.09,6.23,0.5,12.59,1:39:09,34.087746,-113.120178,15075.2,83.29,13
11260418,-23.06,14793.14,244,-1.07,5.93,-0.87,15.44,1:39:10,34.087833,-113.11985,15056.7,65.02,12
11261419,-23.21,14565.48,235,-1.13,-2.23,-1.78,10.56,1:39:11,34.087978,-113.119576,15042.5,71.66,13
11262420,-23.34,14612.79,182,-1.17,2.56,3.49,10.15,1:39:12,34.088139,-113.119293,15026.3,71.24,13
11263421,-23.48,14641.15,280,-1.2,-4.29,-5.05,12.82,1:39:13,34.088322,-113.118988,15011.5,84.46,13
11264422,-23.63,14650.33,416,-1.17,-4.36,1.02,10.57,1:39:14,34.088539,-113.118614,14995.2,96.42,13
11265423,-23.76,14691.3,365,-1.2,-3.3,-3.18,12.05,1:39:15,34.088722,-113.11821,14978.7,94.16,13
11266424,-23.82,14650.33,299,-1.22,-2.89,-3.97,10.17,1:39:16,34.088852,-113.117798,14962.9,92.18,13
11267425,-23.69,14603.21,255,-1.25,-0.47,4.39,10.92,1:39:17,34.08894,-113.117386,14947.1,79.51,13
11268426,-23.75,14608.69,233,-1.31,2.14,-3.28,10.7,1:39:18,34.089027,-113.117065,14928.3,67.51,13
11269427,-23.85,14609.6,206,-1.29,-2.46,-1.08,9.42,1:39:19,34.089123,-113.116791,14910.4,64.12,13
11270428,-23.98,14615.08,318,-1.37,-3.91,-5.57,11.27,1:39:20,34.089275,-113.116493,14893.7,79,13
11271429,-24.1,14593.65,419,-1.28,5.72,2.18,10.06,1:39:21,34.089439,-113.116135,14878.1,88.09,13
11272430,-24.17,14597.75,430,-1.36,-1.04,-2.61,11.64,1:39:22,34.089592,-113.115738,14862.4,90.66,13
11273431,-24.23,14593.65,311,-1.4,-9.06,5.32,11.88,1:39:23,34.089714,-113.115326,14846.2,88.05,13
11274432,-24.27,14585.91,187,-1.4,-0.24,2.68,8.16,1:39:24,34.089787,-113.114944,14830.1,75.55,13
11275433,-24.3,14579.55,140,-1.48,-2.39,-1.39,8.99,1:39:25,34.089867,-113.114639,14814.8,65.68,13
11276434,-24.4,14569.56,238,-1.45,1.06,-0.02,10.85,1:39:26,34.089989,-113.114357,14796.9,64.42,13
11277435,-24.54,14560.49,296,-1.46,-0.67,-2.57,11.64,1:39:27,34.090141,-113.11409,14780.3,70.76,13
11278436,-24.67,14546.91,338,-1.52,-6.36,0.58,13.12,1:39:28,34.090336,-113.113792,14762.3,81.16,13
11279437,-24.77,14606.41,433,-1.52,-3.51,0.95,11.32,1:39:29,34.090519,-113.113457,14746.2,87.87,13
11280438,-24.82,14573.64,395,-1.5,0.02,5.46,9.86,1:39:30,34.090683,-113.11306,14732.3,86.21,13
11281439,-24.85,14544.65,228,-1.52,-5.41,8.66,8.7,1:39:31,34.090801,-113.112701,14721.7,73.42,13
11282440,-24.83,14513.53,137,-1.53,-0.47,-6.17,9.96,1:39:32,34.090893,-113.112381,14711.9,80.34,13
11283441,-24.86,14494.2,250,-1.55,5.23,5.91,10.45,1:39:33,34.090981,-113.112061,14695.4,84.94,13
11284442,-24.99,14473.58,273,-1.56,11.58,-7.26,9.76,1:39:34,34.091179,-113.11187,14690.3,78.59,13
11285443,-25.12,14457.05,299,-1.55,1.37,11.16,13.44,1:39:35,34.091309,-113.111626,14686.3,75.93,11
11286444,-25.18,14481.64,372,-1.55,-4.47,-9.98,12.08,1:39:36,34.091492,-113.111298,14665.1,76.23,13
11287445,-25.22,14479.85,438,-1.55,-3.98,6.79,10.53,1:39:37,34.091686,-113.110939,14648.5,85.45,13
11288446,-25.21,14453.03,371,-1.58,3.02,-8.29,10.43,1:39:38,34.091824,-113.110565,14628.7,74.71,13
11289447,-25.22,14428.08,259,-1.57,-3.1,-4.13,11.53,1:39:39,34.091949,-113.11026,14610.4,73.97,13
11290448,-25.21,14399.69,210,-1.62,-6.32,3.05,11.2,1:39:40,34.092037,-113.109955,14594.7,62.04,13
11291449,-25.14,14334.45,218,-1.64,1.3,-0.06,8.84,1:39:41,34.09214,-113.109711,14577.3,57.08,13
11292450,-25.19,14317.8,213,-1.66,-0.63,-1.28,12.51,1:39:42,34.092274,-113.109482,14559,55.01,13
11293451,-25.26,14260.69,259,-1.68,-1.47,-5.31,13.14,1:39:43,34.09243,-113.109276,14541.8,61.28,13
11294452,-25.32,14265.47,247,-1.67,-0.11,-5.58,11.56,1:39:44,34.092628,-113.109047,14525.3,73.31,13
11295453,-25.38,14237.28,211,-1.71,-0.93,0.37,12,1:39:45,34.092819,-113.108765,14509.1,78.99,13
11296454,-25.33,14298.13,455,-1.73,5.04,1.5,11.29,1:39:46,34.092991,-113.108414,14494.4,84.74,13
11297455,-25.35,14289.4,436,-1.75,2.13,-0.95,15.13,1:39:47,34.093143,-113.108047,14479.8,82.63,13
11298456,-25.33,14271.12,289,-1.8,-11.3,2.01,12.97,1:39:48,34.093227,-113.107674,14467.8,83.63,13
11299457,-25.31,14256.35,224,-1.87,7,-3.89,12.7,1:39:49,34.093288,-113.107338,14455.3,73.28,13
11300458,-25.32,14240.74,172,-1.9,5.91,3.51,10.17,1:39:50,34.093369,-113.107048,14446,53.79,13
11301459,-25.36,14226.47,38,-1.87,-4.69,10.98,13.57,1:39:51,34.093472,-113.106804,14427.6,58.87,13
11302460,-25.41,14176.52,283,-1.88,-5.02,1.86,11.07,1:39:52,34.093567,-113.106537,14414.7,57.48,13
11303461,-25.49,14161.52,364,-1.96,-5.53,5.22,10.36,1:39:53,34.093723,-113.106178,14410.3,80.7,12
11304462,-25.54,14159.81,434,-1.99,0.24,-5.36,12.24,1:39:54,34.093746,-113.105827,14397.2,88.91,13
11305463,-25.55,14151.68,372,-1.97,-6.22,4.64,11.18,1:39:55,34.093838,-113.105637,14389.4,100.82,13
11306464,-25.56,14141,215,-1.96,-1.08,10.66,11.02,1:39:56,34.09396,-113.105141,14369,68.43,13
11307465,-25.57,14075.56,196,-1.98,0.56,7.02,12.48,1:39:57,34.094017,-113.104836,14349.8,62.64,13
11308466,-25.62,14078.1,43,-2.05,-4.08,2.23,9.65,1:39:58,34.09407,-113.104538,14329.1,62.1,13
11309467,-25.7,14078.1,255,-2.03,-3.09,-0.78,9.51,1:39:59,34.094139,-113.104233,14310.8,69.06,13
11310468,-25.78,14075.14,365,-2.06,5.94,1.17,10.95,1:40:00,34.094219,-113.103897,14297.4,68.29,13
11311469,-25.82,14055.71,454,-2.05,-2.24,-2.34,8.89,1:40:01,34.094326,-113.103539,14281.2,84.87,13
11312470,-25.78,14048.12,326,-2.07,3.6,3.36,11.71,1:40:02,34.094395,-113.103127,14263,82.65,13
11313471,-25.75,14039.69,180,-2.07,-2.05,-2.53,9.72,1:40:03,34.094398,-113.102768,14247.4,50.55,13
11314472,-25.77,14022.04,211,-2.07,5.8,5.24,12.68,1:40:04,34.094421,-113.102478,14233.3,63.22,13
11315473,-25.83,14010.29,211,-2.08,-3.57,-1.37,10.63,1:40:05,34.094494,-113.102196,14221.4,60.45,13
11316474,-25.94,14000.24,289,-2.09,1.61,8.21,13.11,1:40:06,34.094578,-113.101913,14207,63.35,13
11317475,-26.07,13989.79,332,-2.08,1.56,7.75,8.37,1:40:07,34.094711,-113.101593,14187.6,76.77,13
11318476,-26.15,13979.35,462,-2.08,-4.28,-5.96,12.79,1:40:08,34.09483,-113.101219,14170.2,84.75,13
11319477,-26.19,13929.03,208,-2.09,5.51,2.51,13.51,1:40:09,34.094936,-113.100838,14153.8,89.52,13
11320478,-25.98,13887.3,381,-2.12,-2.56,-7.09,8.6,1:40:10,34.095016,-113.100426,14137.7,86.56,13
11321479,-25.66,13882.35,265,-2.1,2.18,-2.99,9.42,1:40:11,34.095066,-113.10006,14122.2,75.83,13
11322480,-25.73,13885.24,171,-2.2,-1.32,-3.08,12.6,1:40:12,34.095085,-113.099701,14109,67.15,13
11323481,-25.83,13879.88,138,-2.16,-2.74,8.44,11.5,1:40:13,34.095158,-113.099403,14093.6,63.68,13
11324482,-25.94,13876.59,219,-2.18,-2.51,2.2,10.97,1:40:14,34.095261,-113.099121,14078.6,62.2,13
11325483,-26.07,13870.42,272,-2.24,9.12,-12.73,15,1:40:15,34.095398,-113.098854,14061.5,71.39,13
11326484,-26.17,13860.98,429,-2.23,2.17,-10.64,10.32,1:40:16,34.095547,-113.098518,14046.5,82.16,13
11327485,-26.23,13876.18,59,-2.34,-5.08,4.21,10.41,1:40:17,34.095669,-113.098152,14033.4,81.96,13
11328486,-26.22,13856.05,377,-2.32,-1.17,-6.16,14.1,1:40:18,34.095764,-113.097778,14019.5,80.2,13
11329487,-26.18,13853.59,216,-2.35,4.69,-2.68,10.1,1:40:19,34.095818,-113.097397,14004.7,80.27,13
11330488,-26.19,13833.94,126,-2.41,-5.02,6.6,11.26,1:40:20,34.095837,-113.097046,13993.6,54.03,13
11331489,-26.25,13819.23,249,-2.34,2.22,-4.12,11.37,1:40:21,34.095905,-113.096771,13979.2,48.84,13
11332490,-26.35,13801.3,200,-2.46,0.2,0.09,11.43,1:40:22,34.095966,-113.096497,13964.8,52.41,13
11333491,-26.48,13774.48,318,-2.45,2.13,-1.36,9.36,1:40:23,34.096062,-113.09623,13962.2,55.52,13
11334492,-26.48,13763.95,28,-2.45,2.76,6.47,10.55,1:40:24,34.096264,-113.095772,13953.4,91.44,13
11335493,-26.57,13751,279,-2.52,1.29,-2.03,13.71,1:40:25,34.096436,-113.095322,13930.9,91.19,13
11336494,-26.7,13740.5,260,-2.53,-5.05,0.02,12.62,1:40:26,34.096542,-113.094925,13911.5,89.24,13
11337495,-26.73,13725.58,206,-2.53,-2.7,7.79,6.26,1:40:27,34.096619,-113.094528,13894.9,82.43,13
11338496,-26.76,13713.5,47,-2.56,-3.05,8.67,8.75,1:40:28,34.096684,-113.094208,13879.8,67.74,13
11339497,-26.84,13585.57,215,-2.59,3.75,-1.45,8.04,1:40:29,34.096821,-113.093872,13865.4,78.41,13
11340498,-26.96,13599.01,292,-2.57,11.3,20.79,17.2,1:40:30,34.096966,-113.093544,13851.5,76.02,13
11341499,-27.03,13553.25,262,-2.6,7.11,14.16,13.55,1:40:31,34.097145,-113.093193,13835.9,95.92,13
11342500,-26.86,13559.93,469,-2.59,-0.18,5.3,10.09,1:40:32,34.097298,-113.092789,13820.4,82.66,13
11343501,-26.86,13571.75,242,-2.6,-5.32,-3.63,12.76,1:40:33,34.097404,-113.0924,13806.6,87.81,13
11344502,-26.84,13574.12,226,-2.62,7.1,-7.42,9.49,1:40:34,34.097496,-113.092003,13792.9,79.96,13
11345503,-26.89,13576.88,47,-2.65,-1.97,2.52,7.61,1:40:35,34.09758,-113.091675,13775.8,69.29,13
11346504,-27,13568.99,323,-2.61,-12.07,-0.31,14.63,1:40:36,34.097748,-113.091354,13761.2,81.92,13
11347505,-27.12,13564.27,357,-2.68,-8.48,-10.25,8.75,1:40:37,34.097912,-113.090996,13746.9,87.64,13
11348506,-27.18,13553.25,31,-2.68,-4.96,-2.55,9.11,1:40:38,34.098099,-113.090622,13733.7,93.15,13
11349507,-27.18,13522.24,385,-2.72,5.72,1.82,9.31,1:40:39,34.098232,-113.090187,13725.2,91.15,13
11350508,-27.07,13506.99,325,-2.78,-1.51,1.39,13.63,1:40:40,34.09837,-113.08979,13713.2,91.23,11
11351509,-27.09,13497.22,238,-2.8,1.66,2.53,10.74,1:40:41,34.09845,-113.089409,13696,75.93,13
11352510,-27.11,13482.8,293,-2.83,5.01,3.45,10.54,1:40:42,34.098526,-113.089066,13680.5,72.55,13
11353511,-27.16,13481.63,79,-2.84,-5.99,-10.28,8.84,1:40:43,34.098644,-113.088753,13666,76.15,13
11354512,-27.21,13479.29,228,-2.87,-2.15,2.29,9.94,1:40:44,34.098793,-113.088387,13652.3,88.77,13
11355513,-27.3,13466.46,307,-2.84,-6.63,3.39,12.97,1:40:45,34.098984,-113.087975,13638.2,95.74,13
11356514,-27.32,13431.57,436,-2.84,3.45,-5.42,8.06,1:40:46,34.099194,-113.087555,13622.7,106.32,13
11357515,-27.21,13428.09,447,-2.91,-2.52,-4.6,9.1,1:40:47,34.099373,-113.08709,13607.3,109.93,13
11358516,-27.26,13447.05,389,-2.89,-9.79,-1.88,10.55,1:40:48,34.099522,-113.086617,13593.6,103.45,13
11359517,-27.27,13437.37,287,-2.97,3.54,0.22,6.25,1:40:49,34.099682,-113.086143,13581.2,103.75,13
11360518,-27.3,13419.2,316,-3.01,-2.19,-6.77,8.18,1:40:50,34.0998,-113.085709,13568.1,85.99,13
11361519,-27.32,13398.38,263,-3,0.91,7.13,10.75,1:40:51,34.099918,-113.08535,13552.7,83.78,13
11362520,-27.35,13389.15,186,-3.06,3.96,8.69,12.67,1:40:52,34.100063,-113.084991,13540,79.65,13
11363521,-27.41,13372.25,200,-3.09,-3.27,4.18,13.09,1:40:53,34.10022,-113.084671,13527.1,81.15,13
11364522,-27.5,13361.52,283,-3.09,4.7,-9.77,9.56,1:40:54,34.10043,-113.084297,13513.2,95.14,13
11365523,-27.57,13350.42,434,-3.09,-3.99,10.19,12.32,1:40:55,34.100632,-113.0839,13498.9,99.99,13
11366524,-27.63,13350.04,441,-3.12,2.09,-0.77,14.59,1:40:56,34.100838,-113.083481,13485.8,105.25,13
11367525,-27.65,13332.09,301,-3.11,0.44,-0.89,6.25,1:40:57,34.101017,-113.083031,13472.3,98.01,13
11368526,-27.63,13313.42,267,-3.13,0.74,3.95,10.89,1:40:58,34.101151,-113.082626,13459.7,82.88,13
11369527,-27.55,13298.59,0,-3.12,-5.82,0.25,15.24,1:40:59,34.101288,-113.082275,13446.7,78.82,13
11370528,-27.58,13287.21,162,-3.16,5.86,1.54,11.39,1:41:00,34.101433,-113.08197,13430.7,67.99,13
11371529,-27.69,13271.68,253,-3.23,-5.88,1.76,9.37,1:41:01,34.10162,-113.081703,13414.4,80.69,13
11372530,-27.85,13258.45,299,-3.23,-1.37,2.9,10.8,1:41:02,34.101852,-113.08136,13398.8,92.09,13
11373531,-27.96,13244.87,441,-3.26,1.47,-7.47,11.62,1:41:03,34.1021,-113.081009,13384.2,100.06,13
11374532,-28.03,13232.82,429,-3.26,0.53,5.52,13.2,1:41:04,34.102333,-113.080612,13369.1,101.99,13
11375533,-28.06,13229.81,337,-3.24,-3.27,-2.64,10.64,1:41:05,34.10252,-113.080193,13354.2,96.34,13
11376534,-28.12,13212.52,249,-3.33,5.19,1.28,10.86,1:41:06,34.102676,-113.079811,13341.1,84.96,13
11377535,-28.11,13196.4,235,-3.4,-2.65,-0.95,10.49,1:41:07,34.102818,-113.07946,13327.2,72.33,13
11378536,-28.15,13179.57,82,-3.4,-3.84,-0.49,10.35,1:41:08,34.10297,-113.079193,13311.9,68.25,13
11379537,-28.19,13157.56,238,-3.49,-0.01,-3.24,10.24,1:41:09,34.103161,-113.078926,13297.7,73.41,13
11380538,-28.27,13145.28,185,-3.46,0.32,-3.19,9.72,1:41:10,34.103374,-113.078659,13283.1,82.47,13
11381539,-28.33,13088.61,416,-3.48,-5.12,-6.41,13.29,1:41:11,34.103611,-113.078339,13269.3,88.03,13
11382540,-28.04,13084.55,397,-3.51,-2.41,1.32,10.42,1:41:12,34.103851,-113.077988,13255.5,93.36,13
11383541,-28.14,13080.12,322,-3.55,2.93,5.82,9.1,1:41:13,34.10405,-113.077629,13241.7,85.08,13
11384542,-28.2,13071.28,272,-3.54,4.37,5.83,9.01,1:41:14,34.10421,-113.077286,13229.4,75.22,13
11385543,-28.04,13090.82,244,-3.58,-6.67,2.34,8.92,1:41:15,34.104336,-113.076988,13216,65.08,13
11386544,-28.11,13076.81,195,-3.62,-8.15,-8.52,12.07,1:41:16,34.104469,-113.076736,13201.7,59.83,13
11387545,-28.23,13075.33,262,-3.59,4.55,11.05,9,1:41:17,34.104645,-113.076477,13187.3,69.46,13
11388546,-28.34,13060.98,365,-3.61,3.52,0,9.25,1:41:18,34.104805,-113.076195,13178.4,70.06,13
11389547,-28.41,13045.56,342,-3.62,-7.92,-7.47,13.12,1:41:19,34.104954,-113.07589,13165,81.89,13
11390548,-28.43,13031.27,342,-3.63,0.93,-10.2,15.43,1:41:20,34.10511,-113.075531,13150.3,83,13
11391549,-28.43,13014.45,279,-3.64,-14.99,3.53,9.06,1:41:21,34.105228,-113.075203,13136.5,71.01,13
11392550,-28.44,12994.38,208,-3.67,-1.7,5.42,8.86,1:41:22,34.10532,-113.07489,13127.4,59.03,13
11393551,-28.42,12979.46,259,-3.68,-4.62,3.46,9.86,1:41:23,34.105442,-113.074623,13118.4,61.34,13
11394552,-28.42,12904.94,219,-3.67,-5.05,0.61,11.16,1:41:24,34.105598,-113.074394,13103.2,59.96,13
11395553,-28.46,12901.35,278,-3.79,0.07,-0.35,9.72,1:41:25,34.105747,-113.074135,13090.4,69.07,13
11396554,-28.49,12903.87,264,-3.71,0.22,0.67,8.87,1:41:26,34.105957,-113.073883,13076.1,76.61,13
11397555,-28.52,12930.54,30,-3.8,-0.45,-4.4,14.94,1:41:27,34.106167,-113.073586,13062.9,77.4,13
11398556,-28.54,12922.96,365,-3.87,10.97,0.69,9.41,1:41:28,34.106342,-113.073257,13050.2,84.15,13
11399557,-28.55,12951.16,245,-3.85,-1.98,6.13,14.22,1:41:29,34.106491,-113.072945,13038.4,64.99,13
11400558,-28.52,12927.65,240,-3.86,3.32,6.52,11.9,1:41:30,34.106609,-113.072693,13025.7,59.15,13
11401559,-28.49,12909.27,253,-3.9,3.48,-9.44,11,1:41:31,34.106705,-113.072464,13011.9,50.41,13
11402560,-28.53,12880.51,599,-3.96,2.9,-5.69,9.41,1:41:32,34.106827,-113.072258,13001.2,51.44,13
11403561,-28.61,12864.03,33,-4.03,6.94,3.24,13.65,1:41:33,34.106972,-113.072052,12987.8,53.27,13
11404562,-28.68,12870.47,396,-4.06,2.81,-2.91,10.21,1:41:34,34.107121,-113.071831,12976.9,61.73,11
11405563,-28.72,12828.68,386,-4.02,-2.9,1.2,9.67,1:41:35,34.107265,-113.071541,12970.5,59.54,13
11406564,-28.71,12813.38,314,-4.11,-0.11,1.9,10.77,1:41:36,34.107361,-113.071312,12965,60.39,13
11407565,-28.54,12770.49,252,-4.09,5.88,2.1,10.38,1:41:37,34.107517,-113.071114,12964.3,50.82,13
11408566,-28.55,12769.08,247,-4.11,-4.01,-1.6,10.86,1:41:38,34.107674,-113.070953,12962.8,51.74,11
11409567,-28.6,12760.95,155,-4.14,-0.1,4.94,11.31,1:41:39,34.107681,-113.070717,12952.5,45.49,12
11410568,-28.67,12741.57,164,-4.14,-1.92,-1.31,7.27,1:41:40,34.107784,-113.070518,12937,54.28,13
11411569,-28.78,12736.29,268,-4.16,3.09,-7.21,10.27,1:41:41,34.107933,-113.070282,12925.4,62.87,13
