time_sice_start,bme_temp,bme_alt,uv,ism_temp,acc_x,acc_y,acc_z,gps_time,latitude,logitude,gps_alt,speed,sats
4805970,-7.79,6127.08,277,23.03,-0.52,-0.36,10.14,11:51:36,33.708168,-114.020874,6323,18.13,16
4806971,-7.82,6138.22,289,22.98,0.11,-0.2,10.15,11:51:37,33.708241,-114.020866,6328.7,18.12,16
4807972,-7.92,6144.03,255,22.95,-0.12,0.06,10.07,11:51:38,33.708309,-114.020866,6334.4,17.67,16
4808973,-8.01,6149.68,250,22.95,-0.42,-0.56,10.05,11:51:39,33.708385,-114.020851,6340.2,17.67,16
4809974,-8.07,6155.66,274,22.95,-0.17,-0.12,10.19,11:51:40,33.708454,-114.020851,6346,17.59,16
4810975,-8.13,6161.01,270,22.94,-0.29,-0.05,10.06,11:51:41,33.708527,-114.020851,6351.8,17.02,16
4811976,-8.18,6166.83,280,22.92,-0.26,-0.04,10.05,11:51:42,33.708591,-114.020836,6357.6,16.99,16
4812977,-8.23,6172.03,292,22.85,-0.25,-0.18,10.12,11:51:43,33.708664,-114.020836,6363.4,17.02,16
4813978,-8.29,6176.92,298,22.86,-0.24,0.11,10.13,11:51:44,33.708729,-114.020836,6369.3,16.99,16
4814979,-8.37,6182.91,258,22.89,-0.32,-0.16,10,11:51:45,33.708797,-114.020836,6375.2,16.79,16
4815980,-8.47,6188.91,247,22.81,-0.22,-0.16,10.06,11:51:46,33.708866,-114.020836,6381,16.78,16
4816981,-8.54,6194.91,250,22.86,-0.43,-0.39,10.18,11:51:47,33.708935,-114.020836,6386.9,16.33,16
4817982,-8.59,6192.22,294,22.84,-0.51,-0.26,10.12,11:51:48,33.708996,-114.020828,6392.8,15.6,16
4818983,-8.38,6172.03,291,22.8,-0.1,-0.36,10.14,11:51:49,33.709061,-114.020828,6398.6,15.02,16
4819984,-8.06,6182.75,299,22.82,-0.3,-0.16,10.16,11:51:50,33.709118,-114.020813,6404.5,14.59,16
4820985,-8.21,6208.98,291,22.75,-0.16,-0.32,10.04,11:51:51,33.709175,-114.020798,6410.2,14.28,16
4821986,-8.35,6218.16,286,22.79,-0.11,-0.32,10,11:51:52,33.709229,-114.02079,6416.1,14.09,16
4822987,-8.49,6226.72,288,22.77,-0.13,-0.22,10.04,11:51:53,33.709286,-114.020775,6422,14.38,16
4823988,-8.69,6234.17,249,22.73,-0.22,-0.09,9.93,11:51:54,33.709343,-114.020775,6427.8,14.45,16
4824989,-8.85,6239.88,279,22.7,-0.55,-0.23,9.95,11:51:55,33.709404,-114.02076,6433.6,14.38,16
4825990,-8.98,6245.76,306,22.7,-0.58,-0.45,10.05,11:51:56,33.709457,-114.020752,6439.4,14.09,16
4826991,-9.07,6252.12,235,22.7,-0.4,-0.2,10.05,11:51:57,33.709515,-114.020737,6445.2,13.66,16
4827992,-9.16,6259.11,269,22.68,-0.38,-0.18,10.12,11:51:58,33.709568,-114.020721,6450.9,13.48,16
4828993,-9.22,6265.96,278,22.69,-0.22,-0.17,10.02,11:51:59,33.709618,-114.020714,6456.4,13.81,16
4829994,-9.31,6272.97,287,22.69,-0.52,-0.29,9.99,11:52:00,33.709675,-114.020683,6461.9,14.49,16
4830995,-9.39,6285.09,267,22.69,-0.26,-0.12,10.05,11:52:01,33.709732,-114.020645,6467.3,15.42,16
4831996,-9.54,6291.47,288,22.7,-0.45,-0.05,10.09,11:52:02,33.709789,-114.020622,6472.8,16.49,16
4832997,-9.67,6294.83,283,22.66,-0.41,-0.08,10.21,11:52:03,33.709854,-114.020592,6478.1,17.56,16
4833998,-9.77,6309.53,299,22.65,-0.45,-0.15,10.16,11:52:04,33.709919,-114.020554,6483.5,18.39,16
4834999,-9.86,6317.86,288,22.64,-0.01,-0.1,10.17,11:52:05,33.709991,-114.020515,6489.2,18.72,16
4836000,-9.97,6294.83,92,22.63,-0.22,-0.3,10.06,11:52:06,33.71006,-114.020493,6494.7,18.91,16
4837001,-10.01,6292.11,269,22.62,-0.06,-0.19,10.17,11:52:07,33.710133,-114.02047,6500.4,19.23,16
4838002,-9.74,6301.7,284,22.6,-0.02,-0.03,10.26,11:52:08,33.710209,-114.020439,6506,19.18,16
4839003,-9.81,6309.69,260,22.62,-0.21,-0.09,10.19,11:52:09,33.710281,-114.020416,6511.7,19.14,16
4840004,-9.91,6317.54,264,22.59,-0.1,-0.35,10.15,11:52:10,33.710354,-114.020393,6517.4,19.19,16
4841005,-9.98,6329.4,307,22.58,-0.25,-0.24,10.17,11:52:11,33.71043,-114.020378,6523.1,19.61,16
4842006,-10.03,6350.75,283,22.51,-0.3,-0.2,10.21,11:52:12,33.71051,-114.020355,6528.8,19.69,16
4843007,-10.09,6368.13,311,22.54,-0.1,-0.04,10.17,11:52:13,33.71059,-114.02034,6534.6,19.69,16
4844008,-10.16,6355.09,127,22.52,-0.12,-0.33,10.04,11:52:14,33.71067,-114.020325,6540.6,19.31,16
4845009,-10.22,6350.11,242,22.5,-0.14,-0.03,10.05,11:52:15,33.710747,-114.020302,6546.6,19.07,16
4846010,-9.97,6357.5,316,22.47,-0.07,0,9.98,11:52:16,33.710823,-114.020287,6552.6,19.35,16
4847011,-10.09,6364.58,319,22.48,0.08,0.09,10.07,11:52:17,33.710899,-114.020279,6558.5,19.39,16
4848012,-10.2,6370.71,262,22.44,-0.3,-0.26,10.04,11:52:18,33.710976,-114.020264,6564.5,19.8,16
4849013,-10.29,6376.51,301,22.46,-0.02,-0.28,9.92,11:52:19,33.711056,-114.020248,6570.6,19.97,16
4850014,-10.38,6382.47,303,22.44,0.03,-0.2,10.07,11:52:20,33.711136,-114.020233,6576.6,20.21,16
4851015,-10.47,6388.77,268,22.41,-0.18,0.2,10.11,11:52:21,33.711216,-114.020233,6582.5,20.19,16
4852016,-10.55,6384.41,252,22.4,-0.41,-0.15,10.06,11:52:22,33.711296,-114.020233,6588.5,19.42,16
4853017,-10.33,6388.12,255,22.44,-0.08,-0.09,10.09,11:52:23,33.711372,-114.020233,6594.3,18.8,16
4854018,-10.27,6390.38,284,22.41,-0.11,-0.04,10.08,11:52:24,33.711449,-114.020233,6600.1,18.53,16
4855019,-10.19,6372.96,302,22.4,-0.61,-0.23,9.98,11:52:25,33.711525,-114.020233,6605.9,17.97,16
4856020,-9.97,6371.03,288,22.39,-0.55,-0.51,10.01,11:52:26,33.711594,-114.020233,6611.8,17.12,16
4857021,-9.85,6388.77,250,22.33,-0.41,-0.2,10.07,11:52:27,33.711662,-114.020233,6617.5,16.37,16
4858022,-10.17,6403.15,287,22.33,-0.36,-0.25,10.11,11:52:28,33.711723,-114.020233,6623.1,15.47,16
4859023,-10.41,6415.44,323,22.31,-0.42,-0.25,10.11,11:52:29,33.711781,-114.020233,6628.9,14.4,16
4860024,-10.61,6426.14,247,22.31,-0.48,-0.31,10.05,11:52:30,33.711838,-114.020233,6634.5,13.4,16
4861025,-10.78,6436.03,273,22.28,-0.56,-0.28,10.09,11:52:31,33.711891,-114.020226,6640,13.01,16
4862026,-10.9,6444.64,264,22.2,-0.31,-0.08,10.14,11:52:32,33.711941,-114.020195,6645.5,13.32,16
4863027,-11,6451.46,289,22.22,-0.11,-0.02,10.07,11:52:33,33.71199,-114.020172,6651,13.93,16
4864028,-11.11,6459.11,226,22.19,-0.43,-0.28,10.05,11:52:34,33.712044,-114.020149,6656.5,14.76,16
4865029,-11.16,6465.29,279,22.19,-0.27,-0.32,10.05,11:52:35,33.712101,-114.020119,6662.1,15.16,16
4866030,-11.18,6471.64,275,22.21,-0.24,-0.3,10.03,11:52:36,33.712154,-114.020081,6667.7,15.5,16
4867031,-11.19,6477.51,273,22.2,-0.26,-0.28,9.99,11:52:37,33.712212,-114.020058,6673.2,15.57,16
4868032,-11.2,6483.38,270,22.17,-0.36,-0.48,9.95,11:52:38,33.712269,-114.02002,6678.7,15.76,16
4869033,-11.19,6488.44,289,22.18,-0.33,-0.47,10.08,11:52:39,33.712326,-114.019981,6684.1,16.23,16
4870034,-11.16,6493.99,230,22.16,0.14,-0.53,10.17,11:52:40,33.712383,-114.019943,6689.4,17.35,16
4871035,-11.13,6500.04,197,22.12,-0.02,0.01,10.17,11:52:41,33.712452,-114.019905,6694.6,18.7,16
4872036,-11.1,6497.43,264,22.15,-0.42,-0.15,10.02,11:52:42,33.712517,-114.019852,6699.9,20.02,16
4873037,-10.85,6504.13,279,22.11,-0.39,-0.5,10.09,11:52:43,33.712597,-114.019814,6705.2,20.8,16
4874038,-10.96,6513.78,308,22.14,-0.34,-0.31,10.18,11:52:44,33.712677,-114.019775,6710.4,21.67,16
4875039,-11.01,6536.73,293,22.11,-0.2,-0.14,10.15,11:52:45,33.712753,-114.019737,6715.7,21.62,16
4876040,-11.07,6554.48,299,22.05,-0.17,-0.15,10.12,11:52:46,33.712837,-114.019714,6721,21.31,16
4877041,-11.13,6549.05,288,22.1,-0.2,0.04,10.02,11:52:47,33.712921,-114.019676,6726.5,21.07,16
4878042,-11.19,6528.86,284,22.02,-0.62,0.26,9.99,11:52:48,33.713001,-114.019638,6731.9,21.86,16
4879043,-11.05,6533.45,257,22.07,-0.29,-0.01,9.99,11:52:49,33.713089,-114.019608,6737.4,22.77,16
4880044,-10.95,6541.66,275,22,-0.43,-0.15,10.01,11:52:50,33.713173,-114.019569,6742.8,23.02,16
4881045,-11.06,6549.05,254,22.03,-0.11,-0.55,10.03,11:52:51,33.713261,-114.019531,6747.7,23.58,16
4882046,-11.16,6552.5,264,21.98,-0.2,0.02,10.05,11:52:52,33.713352,-114.019493,6753.2,24.07,16
4883047,-11.07,6544.94,277,21.94,-0.36,-0.28,10.05,11:52:53,33.713444,-114.01947,6758.3,23.64,16
4884048,-10.79,6547.57,267,21.94,-0.52,-0.37,10.16,11:52:54,33.713531,-114.019432,6763.8,22.69,16
4885049,-10.73,6549.54,282,21.92,-0.14,-0.09,10.1,11:52:55,33.713619,-114.019402,6768.4,22.35,16
4886050,-10.69,6535.58,42,21.91,-0.59,0.07,10.05,11:52:56,33.713707,-114.019363,6773.6,22.66,16
4887051,-10.78,6528.86,279,21.91,-0.18,-0.11,10.14,11:52:57,33.713795,-114.019341,6779,22.7,16
4888052,-10.59,6539.36,252,21.94,-0.04,-0.25,10.1,11:52:58,33.713886,-114.019318,6784.5,22.76,16
4889053,-10.61,6532.3,42,21.87,-0.11,-0.11,10.11,11:52:59,33.713974,-114.019287,6789.7,23.41,16
4890054,-10.51,6542.81,306,21.89,-0.64,-0.22,10.07,11:53:00,33.714066,-114.019264,6794.9,23.49,16
4891055,-10.88,6534.76,289,21.88,-0.42,-0.26,10.03,11:53:01,33.714153,-114.019226,6801,23.12,16
4892056,-10.89,6545.44,278,21.86,-0.25,-0.2,10.17,11:53:02,33.714245,-114.019211,6805.9,22.27,16
4893057,-10.82,6539.19,72,21.82,-0.37,-0.14,10.15,11:53:03,33.714333,-114.019188,6811.2,21.59,16
4894058,-10.74,6536.73,42,21.8,-0.35,-0.08,10.1,11:53:04,33.714417,-114.019173,6816.3,21.1,16
4895059,-11.05,6541.82,284,21.75,-0.26,-0.1,10.15,11:53:05,33.7145,-114.01915,6821.7,20.55,16
4896060,-10.91,6556.61,282,21.77,-0.14,0.06,9.94,11:53:06,33.714581,-114.019135,6827,20.28,16
4897061,-10.91,6551.02,47,21.71,-0.39,-0.1,10.03,11:53:07,33.714661,-114.019127,6832.3,20.36,16
4898062,-11,6570.28,298,21.69,-0.31,-0.43,10.12,11:53:08,33.714741,-114.019112,6837.7,20.29,16
4899063,-11.33,6602.3,298,21.74,-0.05,-0.56,10.12,11:53:09,33.714821,-114.019081,6843,19.26,16
4900064,-11.55,6644.23,288,21.69,-0.03,-0.35,10.05,11:53:10,33.714893,-114.019073,6848.3,18.31,16
4901065,-11.69,6653.54,277,21.69,-0.22,-0.23,10.12,11:53:11,33.714962,-114.019058,6853.5,17.14,16
4902066,-11.81,6662.53,296,21.66,-0.3,-0.17,10.18,11:53:12,33.715031,-114.019035,6858.8,16.09,16
4903067,-11.94,6669.86,287,21.65,-0.49,-0.11,10.21,11:53:13,33.715096,-114.01902,6863.9,15.6,16
4904068,-12.09,6686.53,287,21.65,-0.5,-0.41,10.2,11:53:14,33.715153,-114.018997,6869.1,16.11,16
4905069,-12.2,6699.23,291,21.68,-0.5,-0.18,10.16,11:53:15,33.715214,-114.018959,6874.1,17.41,17
4906070,-12.29,6701.4,296,21.63,-0.31,-0.33,10.15,11:53:16,33.715275,-114.018921,6879.4,18.31,17
4907071,-12.36,6699.9,299,21.62,0.01,-0.5,10.01,11:53:17,33.71534,-114.018883,6884.9,18.68,17
4908072,-12.42,6689.54,325,21.62,0,-0.27,10.16,11:53:18,33.715408,-114.018829,6890.3,18.75,17
4909073,-12.47,6680.03,308,21.6,0.01,-0.05,10.17,11:53:19,33.715473,-114.018791,6895.7,18.8,17
4910074,-12.5,6678.69,44,21.58,-0.12,-0.13,10.1,11:53:20,33.715538,-114.018753,6901.3,18.81,17
4911075,-12.53,6671.69,270,21.62,-0.2,-0.13,9.98,11:53:21,33.715611,-114.018715,6906.9,19.37,17
4912076,-12.18,6688.54,337,21.54,0.07,-0.09,10.02,11:53:22,33.715675,-114.018661,6912.5,20.6,17
4913077,-12.29,6700.74,263,21.52,-0.06,-0.26,10.03,11:53:23,33.715755,-114.018608,6918.2,22.16,17
4914078,-12.37,6712.11,263,21.51,-0.21,-0.24,10.05,11:53:24,33.715832,-114.018562,6923.9,23.37,17
4915079,-12.42,6722.67,262,21.48,-0.1,-0.09,10.03,11:53:25,33.715927,-114.018509,6929,24.23,17
4916080,-12.44,6732.06,264,21.47,-0.4,-0.19,10.02,11:53:26,33.716011,-114.018456,6934.3,24.7,17
4917081,-12.44,6740.62,269,21.49,-0.2,-0.29,10.05,11:53:27,33.716106,-114.01841,6939.1,24.71,17
4918082,-12.44,6747.85,278,21.45,-0.28,-0.21,10.12,11:53:28,33.716194,-114.018372,6944.4,24.67,17
4919083,-12.42,6755.58,297,21.41,-0.4,-0.43,10.04,11:53:29,33.71629,-114.018326,6949.9,24.75,17
4920084,-12.4,6762.82,291,21.45,-0.47,-0.59,10,11:53:30,33.716389,-114.01828,6955.6,25.6,17
4921085,-12.38,6768.71,280,21.41,-0.07,-0.47,10.07,11:53:31,33.716484,-114.018227,6960.5,26.53,17
4922086,-12.36,6774.61,278,21.43,-0.24,-0.25,10.18,11:53:33,33.716686,-114.018112,6970.5,27.62,17
4923087,-12.33,6779.84,294,21.39,-0.42,-0.33,9.96,11:53:34,33.716785,-114.018059,6976.1,28.27,17
4924088,-12.28,6785.24,283,21.4,-0.17,-0.29,10.13,11:53:35,33.716885,-114.017998,6981.1,28.72,17
4925089,-12.23,6790.65,253,21.37,-0.13,-0.14,10.04,11:53:36,33.716995,-114.017929,6986.3,28.79,17
4926090,-12.17,6795.38,230,21.34,-0.14,0,10.07,11:53:37,33.717094,-114.017883,6991.3,28.53,17
4927091,-12.11,6800.28,278,21.33,-0.16,-0.4,10.12,11:53:37,33.717094,-114.017883,6991.3,28.57,17
4928092,-12.06,6805.52,274,21.33,-0.23,-0.55,10.03,11:53:39,33.717312,-114.017754,7001.8,29.1,17
4929093,-12.01,6811.11,248,21.25,-0.34,-0.46,10.02,11:53:40,33.717422,-114.0177,7006.9,29.55,17
4930094,-11.95,6815.51,254,21.3,-0.47,-0.22,10.07,11:53:41,33.717529,-114.017639,7012,29.76,17
4931095,-11.88,6820.42,257,21.26,-0.39,-0.4,10.11,11:53:42,33.71764,-114.017578,7016.6,30.04,17
4932096,-11.82,6826.02,308,21.21,-0.28,-0.25,10.11,11:53:43,33.717743,-114.017494,7021.8,30,17
4933097,-11.76,6831.28,267,21.2,-0.13,-0.23,10.06,11:53:43,33.717743,-114.017494,7021.8,29.33,17
4934098,-11.71,6836.03,304,21.19,-0.21,-0.15,10.09,11:53:45,33.717941,-114.017357,7031.2,28.86,17
4935099,-11.65,6840.62,269,21.17,-0.01,-0.36,10.13,11:53:46,33.718044,-114.017296,7036.3,28.86,17
4936100,-11.59,6845.71,262,21.16,-0.2,-0.29,10.19,11:53:47,33.71814,-114.01722,7041.2,28.78,17
4937101,-11.52,6850.47,279,21.15,-0.4,-0.27,10.13,11:53:48,33.718243,-114.017136,7046.3,28.29,17
4938102,-11.47,6850.47,313,21.16,-0.16,-0.35,10.01,11:53:49,33.718334,-114.017075,7051.4,27.91,17
4939103,-11.24,6831.11,316,21.16,0.1,-0.2,10.01,11:53:50,33.718418,-114.016998,7057.3,27.42,17
4940104,-10.83,6810.6,45,21.13,-0.03,-0.33,10.1,11:53:51,33.718494,-114.016922,7062.2,26.23,17
4941105,-10.81,6821.95,293,21.11,0.03,-0.56,10.16,11:53:52,33.718578,-114.016861,7067.3,24.53,17
4942106,-10.94,6839.26,275,21.13,-0.32,-0.58,10.2,11:53:53,33.718662,-114.016808,7071.7,23.38,17
4943107,-11.05,6854.73,303,21.06,-0.25,-0.51,10.24,11:53:54,33.71875,-114.016754,7076.7,22.88,17
4944108,-11.18,6866.65,267,21.09,-0.28,-0.35,10.1,11:53:55,33.71883,-114.016701,7082.3,22.7,17
4945109,-11.31,6877.05,263,21.07,-0.41,-0.4,10.06,11:53:56,33.718914,-114.016663,7087.5,22.95,17
4946110,-11.43,6885.75,274,21.05,-0.32,-0.27,10.1,11:53:57,33.718998,-114.016617,7092.4,23.35,17
4947111,-11.54,6893.61,311,21.03,-0.57,-0.52,10.1,11:53:58,33.719078,-114.016563,7097.9,23.62,17
4948112,-11.62,6900.62,264,21.02,-0.67,0,10.16,11:53:59,33.719158,-114.01651,7103.3,22.96,17
4949113,-11.69,6907.12,234,21.01,-0.34,-0.01,10.01,11:54:00,33.719231,-114.016464,7108.9,21.9,17
4950114,-11.77,6913.45,214,20.99,0.02,-0.14,9.93,11:54:01,33.719307,-114.016411,7114.2,21.2,17
4951115,-11.84,6919.45,294,20.96,-0.13,-0.12,9.89,11:54:02,33.719379,-114.016373,7119.6,20.55,17
4952116,-11.91,6925.45,250,20.96,-0.38,0.07,10.01,11:54:03,33.719456,-114.016335,7124.7,20.34,17
4953117,-11.97,6931.29,284,20.98,-0.2,-0.31,10.05,11:54:04,33.719536,-114.016296,7129.8,20.71,17
4954118,-12.04,6936.78,247,20.93,-0.3,-0.49,10.04,11:54:05,33.719616,-114.016258,7134.9,21.35,17
4955119,-12.12,6936.09,284,20.92,-0.36,-0.44,10.1,11:54:06,33.719696,-114.01622,7140,21.36,17
4956120,-11.99,6922.37,287,20.88,-0.48,-0.52,10.05,11:54:07,33.719776,-114.016182,7145.1,21.35,17
4957121,-12.06,6928.71,273,20.9,-0.55,-0.47,10.07,11:54:08,33.719856,-114.016144,7150.2,21.43,17
4958122,-12.13,6923.57,283,20.89,-0.58,-0.09,10.05,11:54:09,33.719944,-114.016106,7155.2,22.34,17
4959123,-11.97,6938.15,318,20.84,-0.35,-0.02,10.24,11:54:10,33.720036,-114.016068,7160.8,23.53,17
4960124,-12.1,6949.15,317,20.83,-0.21,-0.06,10.33,11:54:11,33.720135,-114.016029,7166,24.88,17
4961125,-12.24,6958.96,287,20.86,-0.32,-0.44,10.2,11:54:12,33.720238,-114.015984,7170.4,26.3,17
4962126,-12.38,6968.09,308,20.83,-0.59,-0.33,10.17,11:54:13,33.720333,-114.015938,7175.8,27.2,17
4963127,-12.49,6976.71,302,20.79,-0.38,-0.01,10.26,11:54:14,33.720432,-114.015869,7181.2,27,17
4964128,-12.54,6984.31,277,20.76,-0.28,-0.14,10.23,11:54:15,33.720531,-114.015808,7186.9,26.59,17
4965129,-12.57,6991.22,252,20.76,-0.24,0,10.17,11:54:16,33.720619,-114.015747,7191.4,25.92,17
4966130,-12.59,6999.52,275,20.71,-0.15,-0.55,10.1,11:54:17,33.720711,-114.015694,7197.9,25.09,17
4967131,-12.62,7008.52,282,20.73,1.22,-0.77,10.13,11:54:18,33.720806,-114.01564,7203.6,25.05,17
4968132,-12.71,7014.75,292,20.69,-0.18,-0.57,10.15,11:54:19,33.720898,-114.015587,7209.3,25.47,17
4969133,-12.78,7020.12,291,20.66,-0.41,-0.35,10.14,11:54:20,33.720997,-114.015541,7215,26.24,17
4970134,-12.86,7025.15,306,20.67,-0.22,-0.64,10.08,11:54:21,33.721096,-114.015488,7221.1,27.07,17
4971135,-12.94,7030.19,331,20.66,-0.28,-0.11,10.17,11:54:22,33.721191,-114.015434,7227.4,27.39,17
4972136,-13,7035.74,291,20.65,-0.44,-0.1,10.15,11:54:23,33.721287,-114.015388,7233.7,26.88,17
4973137,-13.04,7042.17,238,20.62,-0.24,-0.26,10.05,11:54:24,33.721375,-114.01532,7240.4,26.17,17
4974138,-13.06,7047.39,239,20.62,-0.19,0.06,10.09,11:54:25,33.72147,-114.015274,7246.4,25.41,17
4975139,-13.08,7053.48,297,20.62,-0.01,-0.08,10.08,11:54:26,33.721554,-114.015221,7251.4,24.52,17
4976140,-13.14,7067.59,284,20.59,-0.36,-0.38,10.02,11:54:27,33.721649,-114.015167,7258,24.31,17
4977141,-13.24,7067.59,288,20.61,-0.3,-0.1,10.18,11:54:28,33.721741,-114.015106,7263.9,24.59,17
4978142,-13.3,7046.52,280,20.6,-0.49,-0.21,10.1,11:54:29,33.721828,-114.015068,7270.7,25.66,17
4979143,-13.25,7054.35,263,20.57,-0.38,-0.39,10.01,11:54:30,33.721928,-114.014999,7276.9,26.35,17
4980144,-13.12,7066.02,253,20.6,-0.1,0.15,10.03,11:54:31,33.722034,-114.014954,7282.7,27.29,17
4981145,-13.25,7076.48,272,20.51,-0.07,-0.15,9.96,11:54:32,33.722141,-114.014885,7288.5,28.33,17
4982146,-13.37,7082.42,267,20.52,-0.3,0.18,10.08,11:54:33,33.722248,-114.014824,7294.1,29.01,17
4983147,-13.32,7092.2,265,20.48,-0.47,-0.51,10.05,11:54:34,33.722351,-114.014755,7300.5,29.01,17
4984148,-13.48,7099.89,298,20.46,-0.25,0.18,10.07,11:54:35,33.72245,-114.014709,7305.8,28.71,17
4985149,-13.6,7107.77,286,20.42,-0.4,0.04,10.15,11:54:36,33.722557,-114.014641,7311.2,28.28,17
4986150,-13.69,7110.05,250,20.43,-0.36,-0.09,10.09,11:54:37,33.72266,-114.014595,7317.2,28.25,17
4987151,-13.6,7118.64,289,20.42,-0.07,-0.4,10.13,11:54:38,33.722763,-114.014519,7323.6,28.26,17
4988152,-13.76,7125.48,308,20.41,-0.05,-0.07,9.99,11:54:39,33.722851,-114.01445,7329.4,28.73,17
4989153,-13.9,7131.97,302,20.38,-0.07,-0.24,9.91,11:54:40,33.722961,-114.014374,7334.8,29.39,17
4990154,-14.02,7138.3,262,20.39,-0.33,-0.13,10.04,11:54:41,33.723061,-114.014297,7340.4,29.94,17
4991155,-14.12,7144.8,282,20.38,-0.26,-0.5,10.05,11:54:42,33.723171,-114.014236,7346.5,30.41,17
4992156,-14.2,7161.7,296,20.36,-0.57,-0.75,10.01,11:54:43,33.723282,-114.01416,7352.2,30.75,17
4993157,-14.28,7141.11,130,20.34,-0.43,-0.41,10.11,11:54:44,33.723385,-114.014076,7358.3,30.79,17
4994158,-14.35,7126.88,333,20.32,-0.06,-0.14,10.06,11:54:45,33.723495,-114.014015,7363.9,31,17
4995159,-14.43,7119.86,42,20.33,-0.33,-0.1,9.93,11:54:46,33.723606,-114.013939,7369.8,31.33,17
4996160,-14.51,7131.97,252,20.27,-0.44,0.14,10.07,11:54:47,33.723717,-114.013863,7375.2,31.71,17
4997161,-14.34,7148.67,231,20.27,0.02,-0.14,10.06,11:54:48,33.723839,-114.013786,7380.6,32.29,17
4998162,-14.47,7162.41,272,20.26,-0.49,-0.36,10.03,11:54:49,33.723953,-114.01371,7385.7,32.68,17
4999163,-14.56,7174.22,275,20.27,-0.34,-0.35,10.09,11:54:50,33.724072,-114.013618,7391.7,33.1,17
5000164,-14.62,7194.01,288,20.2,-0.57,-0.66,9.98,11:54:51,33.724194,-114.013542,7396.6,33.63,17
5001165,-14.69,7192.24,254,20.18,-0.27,-0.1,10.15,11:54:52,33.724312,-114.013451,7402.1,33.1,17
5002166,-14.77,7174.57,322,20.18,-0.25,-0.41,10.09,11:54:53,33.724419,-114.01339,7407.9,32.39,17
5003167,-14.82,7166.64,42,20.12,-0.33,-0.18,10,11:54:54,33.724529,-114.013313,7413.8,31.55,17
5004168,-14.89,7163.99,265,20.16,-0.45,-0.33,10.1,11:54:55,33.72464,-114.013245,7419.1,31.55,17
5005169,-14.54,7184.46,272,20.12,-0.21,-0.27,10.1,11:54:56,33.724758,-114.013184,7424.2,30.19,17
5006170,-14.7,7200.55,270,20.12,-0.24,-0.16,10.11,11:54:57,33.724861,-114.013123,7430.1,30.44,17
5007171,-14.86,7214.19,287,20.11,-0.15,-0.02,9.97,11:54:58,33.724972,-114.013054,7436.1,30.93,17
5008172,-14.98,7226.08,288,20.12,-0.29,0.14,10.05,11:54:59,33.725086,-114.012993,7441.3,31.76,17
5009173,-15.09,7236.56,274,20.11,-0.25,-0.03,10.21,11:55:00,33.725201,-114.012917,7447.4,32.27,17
5010174,-15.19,7245.62,235,20.08,-0.32,-0.41,10.07,11:55:01,33.725323,-114.01284,7453,32.49,17
5011175,-15.28,7246.51,308,20.09,-0.5,-0.1,10.07,11:55:02,33.725433,-114.012764,7458.6,32.2,17
5012176,-15.11,7224.48,252,20.02,-0.41,-0.23,10.09,11:55:03,33.725544,-114.012688,7464.7,31.56,17
5013177,-14.9,7210.82,55,20.05,-0.22,-0.3,9.99,11:55:04,33.725643,-114.012611,7470.5,30.67,17
5014178,-15.03,7212.24,312,20.05,-0.32,-0.41,10.04,11:55:05,33.725746,-114.012543,7476,30.28,17
5015179,-15.22,7227.85,301,20.03,-0.55,-0.19,10.13,11:55:06,33.725857,-114.012466,7481.3,30.28,17
5016180,-15.39,7237.62,311,19.96,-0.37,-0.22,10.04,11:55:07,33.72596,-114.012405,7486.9,30.16,17
5017181,-15.52,7247.05,302,19.97,-0.06,0.07,10.08,11:55:08,33.72607,-114.012337,7492.9,30.41,17
5018182,-15.64,7279.49,297,19.96,-0.26,-0.23,10.18,11:55:09,33.726173,-114.01226,7498.8,30.39,17
5019183,-15.73,7311.7,296,19.95,-0.34,-0.24,10.14,11:55:10,33.726288,-114.012184,7504.8,30.08,17
5020184,-15.78,7324.98,278,19.9,0.18,-0.23,10.16,11:55:11,33.726395,-114.012108,7510.3,29.13,17
5021185,-15.8,7327.31,292,19.93,-0.34,-0.19,9.96,11:55:12,33.72649,-114.012032,7515.6,27.83,17
5022186,-15.83,7331.08,238,19.87,-0.7,-0.09,10.07,11:55:13,33.726582,-114.011971,7521.6,27.11,17
5023187,-15.88,7335.58,311,19.87,-0.23,0.04,10.15,11:55:14,33.726677,-114.011902,7527.7,27.06,17
5024188,-15.92,7337.73,287,19.85,-0.05,-0.09,9.96,11:55:15,33.726765,-114.011826,7533,27.39,17
5025189,-15.83,7317.44,39,19.84,-0.13,-0.14,10.09,11:55:16,33.726856,-114.011749,7539,28.25,17
5026190,-15.66,7303.28,39,19.86,-0.23,-0.02,10.08,11:55:17,33.726955,-114.011688,7544.8,29.51,17
5027191,-15.76,7288.96,156,19.84,-0.33,0.1,10.21,11:55:18,33.727055,-114.011612,7550.2,30.31,17
5028192,-15.79,7284.67,341,19.8,-0.1,-0.38,10.02,11:55:19,33.727169,-114.011543,7555.4,29.75,17
5029193,-15.9,7285.21,338,19.79,-0.28,-0.41,10,11:55:20,33.727268,-114.011467,7561.6,28.89,17
5030194,-16,7281.46,289,19.75,-0.46,-0.45,10.06,11:55:21,33.727371,-114.011406,7566.8,27.58,17
5031195,-15.69,7309.19,297,19.71,-0.41,-0.03,10.18,11:55:22,33.727467,-114.011337,7572.6,26.66,17
5032196,-15.86,7331.08,297,19.7,-0.28,-0.21,10.11,11:55:23,33.727554,-114.011276,7577.6,26.45,17
5033197,-16.02,7348.71,260,19.72,-0.06,-0.28,9.96,11:55:24,33.72765,-114.011215,7583.3,27.12,17
5034198,-16.17,7363.12,250,19.68,-0.21,-0.35,9.89,11:55:25,33.727745,-114.011147,7588.7,28.44,17
5035199,-16.29,7374.67,238,19.71,0.08,0.18,10,11:55:26,33.727852,-114.011063,7594.6,30.09,17
5036200,-16.39,7384.43,288,19.65,-0.17,-0.25,9.98,11:55:27,33.727955,-114.010994,7599.9,31.31,17
5037201,-16.39,7381.17,294,19.73,-0.3,-0.25,10.02,11:55:28,33.728062,-114.010902,7605.8,31.78,17
5038202,-16.19,7382.08,270,19.63,-0.11,-0.2,10.08,11:55:29,33.728161,-114.010818,7611.3,31.72,17
5039203,-16.08,7389.31,302,19.62,-0.6,-0.2,10.15,11:55:30,33.728275,-114.010742,7616.4,31.25,17
5040204,-16.1,7398.72,282,19.59,-0.31,-0.03,10.18,11:55:31,33.728382,-114.010666,7621.1,30.8,17
5041205,-16.19,7410.68,294,19.6,-0.45,-0.16,10.13,11:55:32,33.728485,-114.010582,7626.8,30.27,17
5042206,-16.41,7420.29,250,19.61,-0.06,-0.24,10.24,11:55:33,33.728588,-114.010506,7631.4,30.35,17
5043207,-16.6,7429.19,287,19.57,0.01,-0.31,10.1,11:55:34,33.728695,-114.010422,7636.7,30.77,17
5044208,-16.74,7437.56,247,19.57,-0.43,-0.37,10.19,11:55:35,33.728798,-114.010345,7642.1,31.11,17
5045209,-16.85,7445.38,252,19.55,-0.33,-0.18,10.09,11:55:36,33.728897,-114.010254,7647.4,31.34,17
5046210,-16.91,7452.85,275,19.54,-0.28,-0.24,10.05,11:55:37,33.729,-114.010162,7652.8,31.34,17
5047211,-16.93,7459.04,274,19.55,-0.01,-0.23,10.14,11:55:38,33.729099,-114.010071,7658.4,31.03,17
5048212,-16.95,7465.25,263,19.5,-0.03,-0.32,10.14,11:55:39,33.729202,-114.009972,7663.9,31.33,17
5049213,-16.96,7471.27,302,19.46,0.16,-0.14,10.16,11:55:40,33.729301,-114.009895,7669.2,30.17,17
5050214,-16.96,7477.12,293,19.48,-0.17,-0.34,10.05,11:55:41,33.729401,-114.009819,7675,30.11,17
5051215,-16.98,7482.78,296,19.46,-0.12,-0.27,10.18,11:55:42,33.729496,-114.009743,7680.6,30.06,17
5052216,-17.01,7488.45,292,19.45,-0.05,-0.47,10.08,11:55:43,33.729595,-114.009636,7687,30.03,17
5053217,-17.04,7488.82,313,19.42,-0.27,-0.29,10.17,11:55:44,33.729691,-114.00956,7693,30.06,17
5054218,-16.87,7463.6,293,19.36,0.02,-0.06,10.2,11:55:45,33.729782,-114.00946,7699.2,30.12,17
5055219,-16.6,7446.66,45,19.34,-0.29,-0.15,10.16,11:55:46,33.72987,-114.009369,7705.2,29.76,17
5056220,-16.61,7440.83,298,19.35,-0.57,-0.19,10.13,11:55:47,33.729954,-114.00927,7711.6,28.99,17
5057221,-16.37,7448.66,280,19.34,-0.67,-0.13,9.97,11:55:48,33.730042,-114.009178,7716.6,28.5,17
5058222,-16.22,7465.06,283,19.34,-0.27,-0.24,10.14,11:55:49,33.730133,-114.009087,7722.7,28.43,17
5059223,-16.24,7483.69,268,19.33,0.02,0.04,10.2,11:55:50,33.730225,-114.008995,7728.1,28.48,17
5060224,-16.37,7501.45,265,19.3,-0.2,-0.39,9.96,11:55:51,33.730309,-114.008911,7734.4,28.91,17
5061225,-16.6,7516.67,270,19.25,-0.12,-0.09,9.96,11:55:52,33.730404,-114.008835,7740.4,29.88,17
5062226,-16.81,7505.12,82,19.27,-0.16,0.01,10.13,11:55:53,33.730507,-114.008728,7746.3,30.71,17
5063227,-16.55,7526.04,327,19.27,-0.51,-0.13,10.11,11:55:54,33.730595,-114.008636,7752.4,30.66,17
5064228,-16.82,7538.73,309,19.25,0.19,-0.34,10.17,11:55:55,33.73069,-114.008553,7758.1,30.03,17
5065229,-17.03,7538.91,311,19.19,-0.41,-0.41,10.02,11:55:56,33.730782,-114.008461,7763.5,29.56,17
5066230,-17.19,7554.93,301,19.2,-0.7,-0.21,10.14,11:55:57,33.730877,-114.008369,7769.8,28.78,17
5067231,-17.33,7578.38,313,19.2,-0.25,-0.16,10.16,11:55:58,33.730972,-114.008308,7775.6,27.66,17
5068232,-17.44,7585.04,291,19.19,-0.16,-0.33,10.11,11:55:59,33.731068,-114.008232,7780.8,27.45,17
5069233,-17.52,7564.71,38,19.14,-0.22,-0.22,10.11,11:56:00,33.731155,-114.008156,7787.2,28.12,17
5070234,-17.57,7556.23,296,19.11,-0.27,-0.1,10.02,11:56:01,33.731247,-114.008064,7793.2,28.87,17
5071235,-17.23,7569.14,240,19.12,-0.06,-0.46,10.03,11:56:02,33.731346,-114.007988,7799.7,28.9,17
5072236,-17.27,7582.63,306,19.12,-0.35,-0.19,10.05,11:56:03,33.731441,-114.007896,7805.3,29.41,17
5073237,-17.46,7595.03,314,19.07,-0.26,-0.37,10.22,11:56:04,33.731537,-114.00782,7811,29.36,17
5074238,-17.59,7611.53,312,19.09,0.01,-0.56,10.13,11:56:05,33.731636,-114.007729,7816.8,28.72,17
5075239,-17.7,7626.58,299,19.06,-0.22,0,10.04,11:56:06,33.731728,-114.007652,7822.8,27.58,17
5076240,-17.82,7634.21,321,19.06,-0.06,-0.12,10.06,11:56:07,33.731819,-114.007576,7828.2,27.16,17
5077241,-17.91,7653.39,293,19.04,-0.38,-0.43,10.03,11:56:08,33.731911,-114.007515,7834.2,27.2,17
5078242,-17.97,7667.2,293,19.02,-0.33,-0.35,10.14,11:56:09,33.732002,-114.007439,7840.1,27.27,17
5079243,-18,7667.95,309,19.05,-0.35,-0.26,10.1,11:56:10,33.73209,-114.007362,7845.8,27.92,17
5080244,-18.04,7669.07,279,19.05,0.05,-0.39,10.13,11:56:11,33.732189,-114.007271,7851.9,28.76,17
5081245,-18.1,7671.5,280,19.01,-0.15,-0.18,10.15,11:56:12,33.732277,-114.007195,7857.6,29.13,17
5082246,-18.12,7674.49,287,18.99,-0.25,-0.3,10.03,11:56:13,33.732372,-114.007103,7864.1,29.14,17
5083247,-18.14,7678.04,280,18.98,-0.49,-0.33,10.01,11:56:14,33.73246,-114.007027,7869.8,28.75,17
5084248,-18.16,7682.53,278,18.93,-0.19,-0.02,10.06,11:56:15,33.732555,-114.00695,7876.2,28.25,17
5085249,-18.18,7687.4,283,18.92,-0.15,-0.34,9.98,11:56:16,33.732643,-114.006874,7881.7,27.88,17
5086250,-18.2,7693.58,280,18.93,-0.27,-0.27,10,11:56:17,33.732738,-114.006783,7887.7,28.18,17
5087251,-18.21,7706.14,293,18.86,-0.4,-0.26,9.95,11:56:18,33.732834,-114.006691,7893.6,28.9,17
5088252,-18.26,7719.47,313,18.9,-0.5,-0.14,9.98,11:56:19,33.732933,-114.006615,7899.2,29.56,17
5089253,-18.28,7722.29,280,18.84,-0.3,-0.22,10.04,11:56:20,33.733025,-114.006531,7904.7,30,17
5090254,-18.31,7725.86,336,18.84,-0.03,-0.14,10.13,11:56:21,33.733124,-114.006424,7910.2,30.27,17
5091255,-18.31,7730,317,18.84,-0.14,-0.3,10.14,11:56:22,33.733215,-114.006348,7915.9,29.9,17
5092256,-18.31,7733.2,323,18.82,-0.27,0,10.21,11:56:23,33.733311,-114.006256,7921.6,29.18,17
5093257,-18.35,7737.34,294,18.82,-0.08,-0.2,10.15,11:56:24,33.733398,-114.006172,7927.9,28.57,17
5094258,-18.36,7741.67,247,18.77,-0.07,-0.18,10.07,11:56:25,33.733482,-114.006096,7933.6,28.36,17
5095259,-18.37,7746.01,236,18.77,-0.22,-0.18,10.01,11:56:26,33.73357,-114.006004,7939.7,28.8,17
5096260,-18.38,7750.91,312,18.77,0,-0.55,10.1,11:56:27,33.733665,-114.005913,7945.7,29.6,17
5097261,-18.4,7756.57,268,18.77,0,-0.16,10.2,11:56:28,33.733765,-114.005821,7952.3,28.97,17
5098262,-18.43,7739.6,304,18.71,-0.49,-0.14,10.08,11:56:29,33.733864,-114.005737,7958.3,30.93,17
5099263,-18.06,7737.34,277,18.73,-0.12,-0.46,10.06,11:56:30,33.733948,-114.00563,7964.7,30.89,17
5100264,-17.86,7750.53,294,18.68,-0.32,-0.27,10.02,11:56:31,33.734043,-114.005539,7970.5,30.43,17
5101265,-18.08,7762.05,262,18.67,-0.36,-0.1,10.07,11:56:32,33.734142,-114.005455,7976.3,29.62,17
5102266,-18.24,7770.17,239,18.64,-0.4,-0.11,10.09,11:56:33,33.734238,-114.005363,7983,28.67,17
5103267,-18.26,7779.82,277,18.63,-0.31,-0.04,10.07,11:56:34,33.734322,-114.005287,7988.6,28.36,17
5104268,-18.42,7788.52,275,18.59,0.01,-0.56,10.05,11:56:35,33.734421,-114.005211,7994.6,28.54,17
5105269,-18.55,7796.48,309,18.62,-0.05,-0.26,10.03,11:56:36,33.734509,-114.005119,8000.4,29.19,17
