time_since_start,bme_temp,bme_alt,uv,ism_temp,acc_x,acc_y,acc_z,gps_time,latitude,longitude,gps_alt,speed,sats
301468,24.03,419.31,24,28.11,-8.71,-1.55,-3.8,10:36:32,33.664658,-114.007439,483.3,0.09,17
302469,24.01,419.39,24,28.09,-8.62,-1.32,-3.8,10:36:33,33.664658,-114.007439,483.3,0.06,17
303470,23.99,419.31,24,28.11,-8.62,-1.96,-4.01,10:36:34,33.664658,-114.007439,483.3,0.25,17
304471,23.97,419.31,24,28.09,-8.56,-1.74,-3.99,10:36:35,33.664658,-114.007439,483.3,0.13,17
305472,23.96,419.39,24,28.12,-8.71,-1.33,-3.86,10:36:36,33.664658,-114.007446,483.4,0.13,17
306473,23.94,419.39,24,28.11,-8.72,-1.75,-4.12,10:36:37,33.664658,-114.007446,483.4,0.06,17
307474,23.93,419.39,23,28.12,-8.34,-2.03,-4.41,10:36:38,33.664658,-114.007446,483.4,0.08,17
308475,23.92,419.39,23,28.11,-8.51,-1.79,-4.22,10:36:39,33.664658,-114.007446,483.4,0.07,17
309476,23.91,419.39,23,28.08,-8.68,-1.49,-4.3,10:36:41,33.664658,-114.007439,483.4,0.06,17
310477,23.91,419.39,24,28.11,-8.67,-1.17,-4.51,10:36:42,33.664658,-114.007439,483.4,0.13,17
311479,23.9,419.31,23,28.12,-8.45,-1.9,-4.64,10:36:43,33.664658,-114.007439,483.5,0.1,17
312479,23.9,419.39,24,28.1,-8.24,-1.59,-3.86,10:36:44,33.664658,-114.007439,483.5,0.16,17
313480,23.9,419.48,24,28.1,-8.78,-2.25,-4.15,10:36:45,33.664658,-114.007439,483.5,0.13,17
314481,23.91,419.39,23,28.1,-8.6,-2,-4.35,10:36:46,33.664658,-114.007439,483.6,0.05,17
315482,23.91,419.48,23,28.11,-8.73,-2.1,-4.36,10:36:47,33.664658,-114.007439,483.6,0.16,17
316483,23.92,419.39,23,28.14,-8.63,-2.39,-4.47,10:36:47,33.664658,-114.007439,483.6,0.06,17
317484,23.91,419.39,24,28.11,-9.12,-2.16,-3.43,10:36:48,33.664658,-114.007439,483.6,0.03,17
318485,23.91,419.48,21,28.09,-8.85,-2.88,-3.86,10:36:50,33.664658,-114.007439,483.7,0.06,17
319486,23.9,419.57,21,28.09,-9.73,-3.48,-2.14,10:36:51,33.664658,-114.007446,483.8,0.1,17
320487,23.89,419.57,20,28.08,-8.76,-2.08,-1.22,10:36:52,33.664658,-114.007446,483.8,0.09,17
321488,23.89,419.65,23,28.1,-9.48,-3.35,0.25,10:36:53,33.664658,-114.007446,483.8,0.13,17
322489,23.89,419.57,24,28.09,-9.04,-2.47,-2.45,10:36:54,33.664658,-114.007446,483.9,0.14,17
323490,23.88,419.83,25,28.12,-11.62,0.53,-2.13,10:36:54,33.664658,-114.007446,483.9,0.1,17
324491,23.88,419.83,23,28.11,-9.12,-2.32,-2.81,10:36:56,33.664658,-114.007446,484,0.1,17
325492,23.88,419.83,24,28.09,-8.53,-2.3,-3.41,10:36:57,33.664658,-114.007446,484,0.09,17
326493,23.87,419.74,23,28.1,-8.9,-1.88,-3.18,10:36:58,33.664658,-114.007446,484,0.14,17
327494,23.88,419.74,21,28.1,-9.09,-1.35,-3.2,10:36:59,33.664658,-114.007446,484,0.07,17
328495,23.87,419.74,23,28.11,-9.04,-1.68,-3.3,10:37:00,33.664658,-114.007446,484.1,0.08,17
329496,23.88,419.57,23,28.1,-8.99,-1.71,-3.64,10:37:01,33.664658,-114.007446,484.1,0.08,17
330497,23.87,419.48,23,28.12,-9.23,-1.79,-3.1,10:37:02,33.664658,-114.007446,484.2,0.25,17
331498,23.85,419.57,21,28.09,-9.83,-1.95,-3.01,10:37:03,33.664661,-114.007446,484.3,0.12,17
332499,23.83,419.65,23,28.09,-8.92,-1.2,-2.75,10:37:04,33.664661,-114.007446,484.3,0.14,17
333500,23.83,419.57,23,28.11,-9.61,-2.36,-2.37,10:37:05,33.664661,-114.007446,484.3,0.03,17
334501,23.83,419.65,23,28.12,-9.32,-1.93,-2.26,10:37:06,33.664661,-114.007446,484.2,0.03,17
335502,23.83,419.57,21,28.1,-9.79,-1.52,-1.79,10:37:07,33.664661,-114.007446,484.2,0.03,17
336503,23.83,419.57,21,28.12,-9.12,-2.13,-3.15,10:37:08,33.664661,-114.007446,484.2,0.03,16
337504,23.84,419.74,23,28.09,-9.23,-2.06,-2.77,10:37:09,33.664661,-114.007446,484.2,0.05,17
338505,23.85,419.65,26,28.11,-9.09,-1.51,-3.02,10:37:10,33.664661,-114.007446,484.2,0.06,17
339506,23.86,419.57,25,28.07,-9.36,-1.3,-2.36,10:37:11,33.664661,-114.007446,484.2,0.17,17
340507,23.86,419.48,24,28.12,-8.77,-1.33,-2.85,10:37:12,33.664661,-114.007446,484.2,0.16,17
341508,23.85,419.48,20,28.15,-9.8,-1.85,-2.79,10:37:13,33.664661,-114.007446,484.3,0.08,17
342509,23.85,419.48,24,28.11,-9.47,-0.85,-2.48,10:37:14,33.664661,-114.007446,484.3,0.15,17
343510,23.85,419.57,24,28.13,-9.02,-0.94,-2.78,10:37:15,33.664661,-114.007446,484.3,0.05,17
344511,23.85,419.57,23,28.13,-9.88,-1.41,-2.77,10:37:16,33.664661,-114.007446,484.3,0.1,17
345512,23.84,419.57,25,28.11,-8.83,-1.56,-3.8,10:37:17,33.664661,-114.007446,484.4,0.28,17
346513,23.82,419.48,28,28.13,-9.04,-1.45,-3.71,10:37:18,33.664661,-114.007446,484.6,0.23,17
347514,23.81,419.48,28,28.14,-9.11,-0.65,-3.29,10:37:19,33.664661,-114.007446,484.6,0.14,17
348515,23.8,419.39,26,28.12,-9.22,-0.67,-3.36,10:37:20,33.664665,-114.007446,484.6,0.06,17
349516,23.78,419.39,26,28.15,-9.54,-0.57,-3.47,10:37:21,33.664665,-114.007446,484.7,0.05,17
350517,23.75,419.39,26,28.15,-9.04,-0.74,-3.49,10:37:22,33.664665,-114.007446,484.7,0.06,17
351518,23.74,419.31,28,28.09,-9.34,-0.43,-3.59,10:37:23,33.664665,-114.007446,484.7,0.07,17
352519,23.73,419.48,23,28.13,-9.05,-0.83,-3.66,10:37:24,33.664665,-114.007446,484.7,0.02,17
353520,23.72,419.48,23,28.12,-8.75,0.01,-3.25,10:37:25,33.664665,-114.007446,484.7,0.03,17
354521,23.72,419.48,23,28.1,-9,0.13,-2.37,10:37:26,33.664665,-114.007446,484.7,0.01,17
355522,23.72,419.57,20,28.1,-9.5,-0.27,-3.64,10:37:27,33.664665,-114.007446,484.7,0.01,17
356523,23.73,419.65,21,28.1,-9.38,0.41,-2.13,10:37:28,33.664665,-114.007446,484.5,0.13,17
357524,23.72,419.65,20,28.13,-9.31,-0.03,-2.59,10:37:29,33.664665,-114.007446,484.5,0.22,17
358525,23.72,419.57,21,28.09,-9.73,0.4,-2.15,10:37:30,33.664665,-114.007446,484.5,0.29,17
359526,23.7,419.65,21,28.1,-9.38,0.37,-2.7,10:37:31,33.664665,-114.007446,484.5,0.17,17
360527,23.69,419.65,21,28.13,-9.18,0.21,-2.83,10:37:32,33.664665,-114.007446,484.7,0.06,17
361528,23.68,419.57,21,28.12,-9.82,-0.22,-2.94,10:37:33,33.664665,-114.007446,484.9,0.03,17
362529,23.66,419.57,21,28.12,-9.38,0.27,-2.73,10:37:34,33.664665,-114.007446,485,0.01,17
363530,23.65,419.65,21,28.16,-9.26,0.44,-2.95,10:37:35,33.664665,-114.007446,485,0.01,17
364531,23.65,419.65,21,28.12,-9.56,0.26,-2.92,10:37:36,33.664665,-114.007446,485.1,0.1,17
365532,23.64,419.65,21,28.14,-9.17,0.35,-3.02,10:37:37,33.664665,-114.007446,485.1,0.25,17
366533,23.64,419.65,21,28.1,-9.1,0.32,-2.9,10:37:38,33.664665,-114.007446,485.1,0.1,17
367534,23.64,419.65,20,28.14,-9.19,0.4,-2.76,10:37:39,33.664665,-114.007446,485.1,0.13,16
368535,23.64,419.57,21,28.12,-9.61,0.06,-1.95,10:37:40,33.664665,-114.007446,485.1,0.15,17
369536,23.63,419.57,26,28.11,-9.12,-0.58,-2.53,10:37:41,33.664665,-114.007446,485.2,0.12,17
370537,23.62,419.48,24,28.12,-10.33,-0.61,-1.28,10:37:42,33.664669,-114.007446,485.2,0.16,17
371538,23.61,419.39,29,28.1,-9.76,-2.34,-1.58,10:37:43,33.664669,-114.007446,485.2,0.33,17
372539,23.61,419.39,33,28.07,-9.18,-1.94,-3.1,10:37:44,33.664669,-114.007446,485.3,0.13,17
373540,23.6,419.39,31,28.13,-9.42,-2.06,-2.65,10:37:45,33.664669,-114.007446,485.3,0.21,16
374541,23.6,419.31,31,28.13,-9.23,-2.98,-3.51,10:37:46,33.664673,-114.007446,485.3,0.21,16
375543,23.6,419.39,26,28.15,-9.58,-1.73,-2.27,10:37:47,33.664673,-114.007446,485.3,0.13,15
376543,23.6,419.65,26,28.16,-9.15,-2.81,0.01,10:37:48,33.664673,-114.007446,485.3,0.13,16
377544,23.6,419.91,28,28.09,-9.94,-1.52,0.66,10:37:49,33.664673,-114.007446,485.3,0.49,16
378545,23.59,419.83,23,28.13,-9.38,-2.77,0.84,10:37:50,33.664669,-114.007446,485.3,0.22,16
379546,23.59,419.74,28,28.14,-9.29,-3.05,0.16,10:37:51,33.664669,-114.007446,485.4,0.08,16
380547,23.58,419.65,23,28.12,-9.04,-3.05,-0.32,10:37:52,33.664669,-114.007446,485.4,0.06,16
381548,23.55,419.83,30,28.13,-8.83,-3.52,-1.3,10:37:53,33.664669,-114.007446,485.4,0.06,17
382549,23.52,419.91,33,28.15,-9.07,-3.87,-1.7,10:37:54,33.664669,-114.007446,485.3,0.25,17
383550,23.5,420,33,28.16,-8.87,-3.64,-2.21,10:37:55,33.664669,-114.007446,485.2,0.1,16
384551,23.46,420,29,28.12,-9.04,-2.7,-0.99,10:37:56,33.664673,-114.007446,485.2,0.1,17
385552,23.43,420,40,28.12,-10.15,-2.13,1.42,10:37:57,33.664673,-114.007446,485.1,0.08,17
386553,23.41,419.91,29,28.11,-9.09,-2.46,3.98,10:37:58,33.664673,-114.007446,485.1,0.08,17
387554,23.39,419.65,26,28.12,-9.03,-1.71,3.17,10:37:59,33.664673,-114.007446,485.1,0.24,17
388555,23.36,419.65,24,28.12,-9.38,-2.02,1.74,10:38:00,33.664673,-114.007446,485.1,0.14,17
389556,23.32,419.65,14,28.12,-9.38,-2,2.29,10:38:01,33.664673,-114.007446,485.1,0.31,17
390557,23.29,419.57,15,28.08,-9.46,-2.1,2.53,10:38:02,33.664673,-114.007446,485.2,0.26,17
391558,23.26,419.48,13,28.13,-9.29,-2.4,3.43,10:38:03,33.664673,-114.007446,485.3,0.14,17
392559,23.25,419.57,4,28.13,-9.18,-2.41,3.41,10:38:04,33.664673,-114.007446,485.3,0.12,16
393560,23.24,419.39,6,28.12,-8.98,-1.92,3,10:38:05,33.664673,-114.007446,485.4,0.08,17
394561,23.22,419.05,6,28.11,-9.17,-1.92,3.5,10:38:06,33.664673,-114.007446,485.4,0.08,16
395562,23.23,418.87,10,28.12,-8.76,-2.04,2.51,10:38:07,33.664673,-114.007446,485.4,0.07,16
396563,23.23,418.7,5,28.11,-9.38,-2.02,3.06,10:38:08,33.664673,-114.007446,485.4,0.07,16
397564,23.23,418.7,10,28.1,-9.17,-1.71,3.2,10:38:09,33.664673,-114.007446,485.4,0.15,16
398566,23.22,418.61,11,28.11,-9.06,-1.79,3.03,10:38:10,33.664673,-114.007446,485.4,0.15,16
399566,23.22,418.53,5,28.14,-9.16,-1.26,2.65,10:38:11,33.664673,-114.007446,485.3,0.06,16
400567,23.22,418.61,11,28.08,-9.45,-2.01,3.26,10:38:12,33.664673,-114.007446,485.3,0.07,17
401568,23.22,418.53,8,28.09,-9.18,-1.73,2.98,10:38:13,33.664673,-114.007446,485.3,0.09,17
402569,23.23,418.44,6,28.1,-9.43,-1.65,2.76,10:38:14,33.664673,-114.007446,485.3,0.15,17
403570,23.25,418.53,10,28.1,-10.09,-2.19,2.57,10:38:15,33.664673,-114.007446,485.3,0.21,17
404571,23.25,418.61,8,28.1,-9.69,-1.48,2.88,10:38:16,33.664673,-114.007439,485.3,0.28,17
405572,23.23,418.7,9,28.11,-9.73,-1.13,2.71,10:38:17,33.664673,-114.007439,485.3,0.28,17
406573,23.22,418.87,6,28.12,-9.03,-1.27,2.45,10:38:18,33.664673,-114.007439,485.3,0.13,17
407574,23.21,418.96,42,28.14,-9.32,-1.96,3.3,10:38:19,33.664673,-114.007439,485.3,0.23,17
408575,23.2,419.05,42,28.15,-9.61,-1.38,3.06,10:38:20,33.664673,-114.007439,485.3,0.1,15
409576,23.19,419.05,42,28.1,-9.67,-1.31,3.11,10:38:21,33.664673,-114.007439,485.3,0.1,15
410577,23.19,419.13,42,28.16,-9.38,-1.65,3.06,10:38:22,33.664673,-114.007439,485.3,0.09,15
411578,23.19,419.13,40,28.09,-9.42,-1.42,2.89,10:38:23,33.664673,-114.007439,485.2,0.08,15
412579,23.2,419.05,38,28.12,-9.14,-1.68,3,10:38:24,33.664673,-114.007439,485.2,0.05,15
413580,23.2,418.7,42,28.1,-9.71,-2.24,3.4,10:38:25,33.664673,-114.007439,485.2,0.08,16
414581,23.19,418.79,42,28.12,-9.08,-0.61,3.52,10:38:26,33.664673,-114.007439,485.3,0.08,17
415582,23.17,419.05,0,28.09,-10.33,-0.68,2.06,10:38:27,33.664673,-114.007439,485.3,0.2,17
416583,23.15,418.96,91,28.11,-9.38,1.52,2.72,10:38:28,33.664673,-114.007439,485.2,0.14,17
417584,23.15,418.27,44,28.11,-8.98,1.11,3.43,10:38:29,33.664673,-114.007439,485.2,0.17,17
418585,23.17,416.27,45,28.09,-9.03,1.27,3.73,10:38:30,33.664673,-114.007439,485.2,0.06,17
419586,23.2,416.27,45,28.12,-9.09,1.23,3.76,10:38:31,33.664669,-114.007439,485.1,0.22,17
420587,23.24,416.36,84,28.15,-9.11,1.21,3.86,10:38:32,33.664673,-114.007439,485.2,0.14,17
421588,23.28,409,47,28.11,-8.53,1.02,3.76,10:38:33,33.664673,-114.007439,485.3,0.14,17
422589,23.33,403.02,47,28.13,-9,-0.68,4.11,10:38:34,33.664673,-114.007439,485.3,0.13,17
423590,23.39,399.99,45,28.15,-9.02,0.25,4.02,10:38:35,33.664669,-114.007439,485.3,0.14,17
424591,23.46,396.19,45,28.11,-9.07,0.12,4.02,10:38:36,33.664669,-114.007439,485.2,0.12,17
425592,23.51,391.34,45,28.13,-8.99,0.01,4.16,10:38:37,33.664669,-114.007439,485.3,0.06,17
426593,23.58,389.18,47,28.09,-9.07,-0.03,4.08,10:38:38,33.664669,-114.007439,485.3,0.05,17
427594,23.65,387.8,47,28.13,-9.2,0.28,3.96,10:38:39,33.664669,-114.007439,485.3,0.09,17
428595,23.72,387.63,47,28.13,-9.11,0.12,4.08,10:38:40,33.664669,-114.007439,485.3,0.06,17
429596,23.78,384.52,47,28.15,-9.03,0.12,4.12,10:38:41,33.664669,-114.007439,485.3,0.12,17
430597,23.84,389.27,19,28.13,-10.06,-0.26,2.37,10:38:42,33.664669,-114.007439,485.3,0.06,17
431598,23.91,392.47,103,28.12,-9.33,0.24,3.81,10:38:43,33.664669,-114.007439,485.2,0.07,17
432599,23.98,391.08,131,28.12,-8.42,0.2,4.48,10:38:44,33.664669,-114.007439,485.2,0.05,17
433600,24.06,379.85,135,28.15,-8.89,0.31,4.65,10:38:45,33.664669,-114.007439,485.2,0.02,17
434601,24.15,371.56,128,28.11,-8.67,0.36,4.85,10:38:46,33.664669,-114.007439,485.2,0.01,17
435602,24.24,329.97,141,28.12,-8.13,0.78,5.47,10:38:47,33.664669,-114.007439,485.2,0.02,17
436603,24.32,327.65,36,28.1,-8.75,0.56,4.87,10:38:48,33.664669,-114.007439,485.2,0.03,17
437604,24.42,339.43,29,28.08,-9.05,0.74,4.08,10:38:49,33.664669,-114.007439,485.2,0.03,17
438605,24.53,337.62,28,28.12,-9.25,0.22,3.9,10:38:50,33.664669,-114.007439,485.2,0.3,17
439606,24.64,335.73,23,28.12,-9.01,0.23,4.09,10:38:51,33.664669,-114.007439,485.2,0.29,17
440607,24.77,331.6,28,28.1,-8.93,0.12,4.01,10:38:52,33.664669,-114.007446,485.2,0.09,17
441608,24.89,333.41,23,28.09,-9.18,0.18,4.04,10:38:53,33.664669,-114.007446,485.2,0.1,17
442609,24.99,330.48,19,28.14,-9.08,0.43,4.02,10:38:54,33.664669,-114.007446,485.2,0.2,17
443610,25.08,329.8,16,28.15,-9.11,0.47,4,10:38:55,33.664669,-114.007446,485.2,0.12,17
444611,25.17,325.41,15,28.14,-9.1,0.33,4.07,10:38:56,33.664669,-114.007446,485.3,0.26,17
445612,25.24,312.88,15,28.12,-9.13,0.33,4.02,10:38:57,33.664669,-114.007446,485.3,0.25,17
446613,25.31,306.96,23,28.14,-9.17,0.2,4.14,10:38:58,33.664669,-114.007439,485.3,0.17,17
447614,25.39,304.47,16,28.1,-9.05,-0.01,3.9,10:38:59,33.664669,-114.007439,485.3,0.25,17
448615,25.48,313.05,14,28.13,-9.25,0.01,4.11,10:39:00,33.664669,-114.007439,485.3,0.18,17
449616,25.57,329.45,123,28.13,-8.76,-0.41,4.36,10:39:01,33.664669,-114.007439,485.3,0.21,17
450617,25.66,340.89,108,28.12,-9.22,-0.8,4.24,10:39:02,33.664669,-114.007439,485.3,0.1,17
451618,25.75,347.26,104,28.1,-9.08,-0.97,4.04,10:39:03,33.664669,-114.007439,485.3,0.09,17
452619,25.83,350.7,96,28.1,-9.2,-0.8,3.81,10:39:04,33.664669,-114.007439,485.3,0.13,17
453620,25.91,355.35,101,28.11,-9.2,-0.95,3.61,10:39:05,33.664669,-114.007439,485.3,0.21,16
454621,26,358.54,98,28.12,-9.15,-1.04,3.5,10:39:06,33.664669,-114.007439,485.3,0.15,16
455622,26.08,362.51,93,28.13,-9.23,-1.01,3.37,10:39:07,33.664669,-114.007439,485.3,0.24,16
456623,26.17,366.13,92,28.16,-9.19,-0.93,3.71,10:39:08,33.664669,-114.007439,485.3,0.46,17
457624,26.24,369.06,89,28.12,-9.31,-1.19,3.38,10:39:09,33.664665,-114.007446,485.3,0.44,17
458625,26.3,370.96,77,28.16,-9.41,-0.98,3.48,10:39:10,33.664665,-114.007446,485.3,0.39,17
459626,26.35,371.82,65,28.16,-9.2,-1.02,3.38,10:39:11,33.664661,-114.007446,485.3,0.32,17
460627,26.42,372.43,38,28.12,-9.36,-1.02,3.33,10:39:12,33.664665,-114.007446,485.3,0.1,17
461628,26.49,372.43,23,28.13,-9.35,-0.9,3.41,10:39:13,33.664661,-114.007446,485.3,0.18,17
462629,26.52,373.63,86,28.13,-9.34,-1.17,3.18,10:39:14,33.664661,-114.007446,485.3,0.32,17
463630,26.55,374.76,96,28.11,-9.39,-1.11,3.78,10:39:15,33.664661,-114.007446,485.3,0.08,17
464631,26.58,373.72,29,28.15,-8.96,-0.94,3.96,10:39:16,33.664665,-114.007446,485.3,0.46,16
465632,26.58,330.4,28,28.09,-8.82,1.15,4.44,10:39:17,33.664665,-114.007446,485.3,0.29,17
466633,26.6,308.59,30,28.1,-8.79,0.9,4.17,10:39:18,33.664665,-114.007446,485.3,0.08,17
467634,26.63,298.22,36,28.12,-8.63,1.15,4.36,10:39:19,33.664665,-114.007446,485.3,0.07,17
468635,26.67,318.11,30,28.14,-9.06,-0.09,4.49,10:39:20,33.664665,-114.007446,485.3,0.03,17
469636,26.7,327.22,36,28.14,-8.99,0.4,4.33,10:39:21,33.664665,-114.007446,485.3,0.05,17
470637,26.74,322.66,36,28.15,-9.13,0.31,4.19,10:39:22,33.664665,-114.007446,485.3,0.2,17
471638,26.77,327.99,38,28.12,-8.77,0.38,4.28,10:39:23,33.664665,-114.007446,485.3,0.2,17
472639,26.81,327.91,142,28.13,-8.84,0.58,3.59,10:39:24,33.664665,-114.007446,485.3,0.09,17
473640,26.83,349.07,87,28.12,-10.01,1.81,2.49,10:39:25,33.664665,-114.007446,485.3,0.05,17
474641,26.84,366.56,44,28.17,-10.11,2.16,1.28,10:39:26,33.664665,-114.007446,485.2,0.08,17
475642,26.84,379.68,49,28.14,-7.27,6.35,2.24,10:39:27,33.664665,-114.007446,485.2,0.59,17
476643,26.81,389.53,43,28.12,-7.26,4.73,1.37,10:39:28,33.664665,-114.007446,485.1,0.44,17
477644,26.77,396.71,35,28.15,-9.05,4.12,0.63,10:39:29,33.664661,-114.007446,484.9,0.52,17
478645,26.75,402.07,33,28.19,-8.68,4.4,-0.22,10:39:30,33.664661,-114.007446,484.6,0.38,17
479646,26.73,406.14,33,28.15,-8.69,4.41,-0.26,10:39:31,33.664661,-114.007446,484.5,0.36,17
480647,26.72,409.17,33,28.13,-8.69,4.41,-0.25,10:39:32,33.664661,-114.007446,484.5,0.13,17
481648,26.7,411.51,33,28.17,-8.69,4.4,-0.25,10:39:33,33.664661,-114.007439,484.6,0.13,17
482649,26.68,413.24,33,28.15,-8.69,4.41,-0.24,10:39:34,33.664661,-114.007439,484.6,0.08,17
483650,26.67,414.54,34,28.15,-8.7,4.4,-0.25,10:39:35,33.664661,-114.007439,484.6,0.08,17
484651,26.67,415.49,34,28.14,-8.69,4.41,-0.25,10:39:36,33.664661,-114.007439,484.6,0.09,17
485652,26.66,416.27,33,28.11,-8.7,4.4,-0.25,10:39:37,33.664661,-114.007439,484.6,0.13,17
486653,26.65,416.79,34,28.17,-8.69,4.4,-0.25,10:39:38,33.664661,-114.007439,484.5,0.09,17
487654,26.64,417.23,34,28.13,-8.69,4.41,-0.25,10:39:39,33.664661,-114.007439,484.5,0.08,17
488655,26.64,417.66,34,28.15,-8.69,4.41,-0.25,10:39:40,33.664661,-114.007439,484.5,0.08,17
489656,26.63,417.83,34,28.17,-8.69,4.4,-0.25,10:39:41,33.664665,-114.007439,484.5,0.03,17
490657,26.61,417.92,34,28.14,-8.7,4.41,-0.24,10:39:42,33.664665,-114.007439,484.5,0.1,17
491658,26.59,417.92,34,28.15,-8.7,4.4,-0.24,10:39:43,33.664665,-114.007439,484.5,0.15,17
492659,26.55,418.09,35,28.12,-8.69,4.4,-0.24,10:39:44,33.664665,-114.007439,484.5,0.12,17
493660,26.52,418.18,34,28.12,-8.69,4.41,-0.26,10:39:45,33.664665,-114.007439,484.5,0.15,17
494661,26.5,418.18,34,28.14,-8.69,4.4,-0.24,10:39:46,33.664665,-114.007439,484.5,0.01,17
495662,26.48,418.35,34,28.14,-8.69,4.4,-0.25,10:39:47,33.664665,-114.007439,484.6,0.16,18
496663,26.45,418.35,35,28.12,-8.7,4.41,-0.24,10:39:48,33.664665,-114.007439,484.5,0.16,18
497664,26.42,418.44,34,28.14,-8.7,4.4,-0.24,10:39:49,33.664665,-114.007439,484.5,0.05,18
498665,26.39,418.44,34,28.12,-8.7,4.4,-0.24,10:39:50,33.664665,-114.007439,484.5,0.09,18
499666,26.38,418.44,34,28.15,-8.7,4.4,-0.24,10:39:51,33.664665,-114.007439,484.5,0.15,18
500667,26.37,418.53,34,28.17,-8.69,4.41,-0.25,10:39:52,33.664665,-114.007439,484.5,0.14,18
501668,26.36,418.53,34,28.14,-8.69,4.41,-0.25,10:39:53,33.664665,-114.007439,484.5,0.02,18
502669,26.35,418.53,35,28.18,-8.69,4.39,-0.25,10:39:54,33.664665,-114.007439,484.5,0.18,18
503670,26.33,418.53,34,28.17,-8.7,4.41,-0.25,10:39:55,33.664665,-114.007439,484.5,0.02,18
504671,26.32,418.53,34,28.14,-8.7,4.41,-0.25,10:39:56,33.664665,-114.007439,484.5,0.08,18
505672,26.31,418.53,35,28.21,-8.69,4.4,-0.25,10:39:57,33.664665,-114.007439,484.5,0.13,18
506673,26.3,418.53,34,28.18,-8.7,4.4,-0.25,10:39:58,33.664665,-114.007439,484.6,0.09,18
507674,26.29,418.53,34,28.14,-8.7,4.4,-0.25,10:39:59,33.664665,-114.007439,484.6,0.1,18
508675,26.28,418.53,34,28.2,-8.71,4.41,-0.25,10:40:00,33.664665,-114.007439,484.6,0.18,18
509676,26.28,418.44,34,28.18,-8.7,4.41,-0.23,10:40:01,33.664665,-114.007439,484.6,0.2,18
510677,26.27,418.53,34,28.16,-8.69,4.4,-0.26,10:40:02,33.664665,-114.007439,484.6,0.05,18
511678,26.26,418.53,35,28.2,-8.7,4.41,-0.25,10:40:03,33.664665,-114.007439,484.6,0.15,18
512679,26.25,418.61,35,28.19,-8.69,4.4,-0.25,10:40:04,33.664665,-114.007439,484.7,0.62,18
513680,26.25,418.61,35,28.16,-8.7,4.4,-0.25,10:40:05,33.664665,-114.007439,484.4,0.29,18
514681,26.24,418.7,35,28.23,-8.7,4.4,-0.24,10:40:06,33.664665,-114.007439,484.3,0.36,18
515682,26.23,418.7,35,28.21,-8.69,4.4,-0.24,10:40:07,33.664665,-114.007439,484.3,0.28,18
516683,26.23,418.7,35,28.2,-8.7,4.4,-0.24,10:40:08,33.664665,-114.007439,484.3,0.29,18
517684,26.23,418.61,34,28.18,-8.7,4.4,-0.25,10:40:09,33.664665,-114.007439,484.3,0.21,17
518685,26.23,418.7,35,28.15,-8.69,4.4,-0.24,10:40:10,33.664665,-114.007439,484.4,0.43,17
519686,26.23,418.7,35,28.19,-8.69,4.41,-0.25,10:40:11,33.664665,-114.007439,484.4,0.32,17
520687,26.24,418.7,35,28.18,-8.7,4.4,-0.26,10:40:12,33.664665,-114.007439,484.5,0.17,17
521688,26.24,418.7,35,28.19,-8.7,4.4,-0.25,10:40:13,33.664665,-114.007439,484.5,0.26,17
522689,26.24,418.79,35,28.18,-8.7,4.4,-0.25,10:40:14,33.664665,-114.007439,484.5,0.21,16
523690,26.22,418.79,35,28.14,-8.69,4.4,-0.25,10:40:15,33.664665,-114.007439,484.5,0.24,18
524691,26.21,418.79,35,28.16,-8.7,4.4,-0.25,10:40:16,33.664665,-114.007439,484.5,0.31,18
525692,26.2,418.87,35,28.19,-8.7,4.41,-0.24,10:40:17,33.664665,-114.007439,484.5,0.17,18
526693,26.19,418.87,35,28.19,-8.7,4.4,-0.25,10:40:18,33.664665,-114.007439,484.5,0.1,17
527694,26.18,418.87,35,28.17,-8.7,4.4,-0.24,10:40:19,33.664665,-114.007439,484.6,0.1,18
528695,26.17,418.87,35,28.21,-8.7,4.41,-0.25,10:40:20,33.664665,-114.007439,484.5,0.05,18
529696,26.16,418.79,35,28.17,-8.71,4.41,-0.24,10:40:21,33.664665,-114.007439,484.5,0.03,18
530697,26.15,418.79,35,28.19,-8.7,4.41,-0.23,10:40:22,33.664665,-114.007439,484.5,0.05,18
531698,26.14,418.79,34,28.2,-8.7,4.4,-0.24,10:40:23,33.664665,-114.007439,484.5,0.07,18
532699,26.15,418.7,35,28.16,-8.7,4.4,-0.25,10:40:24,33.664665,-114.007439,484.5,0.24,18
533700,26.14,418.7,34,28.25,-8.7,4.41,-0.24,10:40:25,33.664665,-114.007439,484.5,0.23,18
534701,26.14,418.7,34,28.19,-8.69,4.4,-0.25,10:40:26,33.664661,-114.007439,484.5,0.09,18
535702,26.14,418.61,34,28.2,-8.7,4.4,-0.25,10:40:27,33.664661,-114.007439,484.5,0.17,18
536703,26.13,418.53,33,28.21,-8.69,4.4,-0.24,10:40:28,33.664661,-114.007439,484.5,0.21,18
537704,26.11,418.44,34,28.24,-8.69,4.41,-0.24,10:40:29,33.664661,-114.007439,484.4,0.14,18
538705,26.09,418.44,34,28.25,-8.69,4.41,-0.25,10:40:30,33.664661,-114.007439,484.4,0.21,18
539706,26.09,418.44,34,28.19,-8.68,4.41,-0.24,10:40:31,33.664661,-114.007439,484.4,0.15,18
540707,26.08,418.44,35,28.2,-8.69,4.41,-0.24,10:40:32,33.664661,-114.007439,484.4,0.06,18
541708,26.08,418.53,34,28.2,-8.7,4.41,-0.25,10:40:33,33.664661,-114.007439,484.4,0.18,18
542709,26.08,418.53,35,28.21,-8.7,4.4,-0.25,10:40:34,33.664661,-114.007439,484.4,0.08,18
543710,26.07,418.61,35,28.26,-8.69,4.4,-0.25,10:40:35,33.664661,-114.007439,484.4,0.08,18
544711,26.08,418.61,34,28.2,-8.69,4.4,-0.24,10:40:36,33.664661,-114.007439,484.4,0.03,18
545712,26.08,418.61,34,28.27,-8.7,4.4,-0.24,10:40:37,33.664658,-114.007439,484.3,0.1,18
546713,26.08,418.61,35,28.21,-8.7,4.4,-0.24,10:40:38,33.664658,-114.007439,484.3,0.06,18
547714,26.09,418.61,35,28.21,-8.69,4.41,-0.25,10:40:39,33.664658,-114.007439,484.3,0.09,18
548715,26.1,418.61,35,28.22,-8.7,4.4,-0.24,10:40:40,33.664658,-114.007439,484.3,0.03,18
549716,26.1,418.61,35,28.21,-8.69,4.4,-0.25,10:40:41,33.664658,-114.007439,484.3,0.09,18
550717,26.1,418.61,35,28.27,-8.7,4.4,-0.25,10:40:42,33.664658,-114.007439,484.3,0.09,18
551718,26.09,418.61,34,28.23,-8.7,4.41,-0.25,10:40:43,33.664658,-114.007439,484.3,0.06,18
552719,26.08,418.61,34,28.18,-8.7,4.41,-0.24,10:40:44,33.664658,-114.007439,484.4,0.07,18
553720,26.08,418.7,35,28.24,-8.7,4.4,-0.25,10:40:45,33.664658,-114.007439,484.4,0.03,18
554721,26.08,418.7,35,28.2,-8.69,4.41,-0.24,10:40:46,33.664658,-114.007439,484.4,0.09,18
555722,26.09,418.79,35,28.3,-8.7,4.41,-0.25,10:40:47,33.664658,-114.007439,484.4,0.09,18
556723,26.09,418.7,34,28.25,-8.69,4.41,-0.24,10:40:48,33.664658,-114.007439,484.4,0.1,18
557724,26.08,418.61,34,28.24,-8.7,4.4,-0.25,10:40:49,33.664658,-114.007439,484.4,0.07,18
558725,26.07,418.53,35,28.21,-8.7,4.41,-0.25,10:40:50,33.664658,-114.007439,484.4,0.05,18
559726,26.06,418.53,34,28.27,-8.7,4.41,-0.25,10:40:51,33.664658,-114.007439,484.4,0.02,18
560727,26.06,418.53,35,28.23,-8.69,4.4,-0.25,10:40:52,33.664658,-114.007439,484.4,0.07,18
561728,26.06,418.44,34,28.23,-8.69,4.41,-0.24,10:40:53,33.664658,-114.007439,484.4,0.15,18
562729,26.05,418.44,35,28.25,-8.7,4.41,-0.24,10:40:54,33.664658,-114.007439,484.4,0.05,18
563730,26.04,418.53,35,28.2,-8.7,4.41,-0.24,10:40:55,33.664658,-114.007439,484.4,0.03,18
564731,26.04,418.53,35,28.28,-8.68,4.4,-0.26,10:40:56,33.664658,-114.007439,484.5,0.13,18
565732,26.04,418.44,34,28.25,-8.7,4.41,-0.24,10:40:57,33.664658,-114.007439,484.4,0.15,18
566733,26.04,418.53,34,28.25,-8.7,4.4,-0.24,10:40:58,33.664658,-114.007439,484.4,0.12,18
567734,26.04,418.53,35,28.27,-8.7,4.4,-0.25,10:40:59,33.664658,-114.007439,484.4,0.12,18
568735,26.03,418.53,35,28.23,-8.69,4.4,-0.24,10:41:00,33.664658,-114.007439,484.4,0.05,18
569736,26.01,418.44,35,28.22,-8.69,4.4,-0.25,10:41:01,33.664658,-114.007439,484.4,0.12,18
570737,25.99,418.35,35,28.27,-8.7,4.42,-0.24,10:41:02,33.664658,-114.007439,484.4,0.09,18
571738,25.96,418.35,35,28.28,-8.69,4.4,-0.25,10:41:03,33.664658,-114.007439,484.4,0.13,18
572739,25.94,418.27,34,28.32,-8.68,4.4,-0.25,10:41:04,33.664658,-114.007439,484.4,0.09,18
573740,25.91,418.35,34,28.21,-8.7,4.41,-0.25,10:41:05,33.664658,-114.007439,484.4,0.08,18
574741,25.88,418.27,35,28.26,-8.69,4.4,-0.25,10:41:06,33.664658,-114.007439,484.4,0.07,18
575742,25.86,418.35,35,28.27,-8.7,4.41,-0.24,10:41:07,33.664658,-114.007439,484.4,0.03,18
576743,25.85,418.27,35,28.3,-8.69,4.4,-0.26,10:41:08,33.664658,-114.007439,484.4,0.03,18
577744,25.83,418.44,35,28.29,-8.7,4.4,-0.25,10:41:09,33.664658,-114.007439,484.4,0.02,18
578745,25.81,418.35,35,28.26,-8.7,4.4,-0.25,10:41:10,33.664658,-114.007439,484.4,0.02,18
579746,25.79,418.35,35,28.25,-8.69,4.41,-0.25,10:41:11,33.664658,-114.007439,484.4,0.16,18
580747,25.77,418.35,35,28.28,-8.69,4.41,-0.24,10:41:12,33.664658,-114.007439,484.4,0.12,18
581748,25.75,418.35,35,28.26,-8.69,4.42,-0.25,10:41:13,33.664658,-114.007439,484.4,0.16,18
582749,25.73,418.35,34,28.23,-8.69,4.41,-0.24,10:41:14,33.664658,-114.007439,484.5,0.02,18
583750,25.72,418.35,34,28.27,-8.69,4.41,-0.25,10:41:15,33.664658,-114.007439,484.4,0.09,18
584751,25.71,418.35,34,28.25,-8.71,4.4,-0.24,10:41:16,33.664658,-114.007439,484.4,0.15,18
585752,25.71,418.27,34,28.25,-8.69,4.41,-0.25,10:41:17,33.664658,-114.007439,484.5,0.08,18
586753,25.7,418.27,35,28.22,-8.7,4.4,-0.24,10:41:18,33.664658,-114.007439,484.4,0.16,18
587754,25.68,418.27,35,28.26,-8.69,4.41,-0.24,10:41:19,33.664658,-114.007439,484.4,0.09,18
588755,25.65,418.35,34,28.32,-8.68,4.4,-0.24,10:41:20,33.664658,-114.007439,484.4,0.09,18
589756,25.63,418.44,30,28.29,-8.7,4.41,-0.24,10:41:21,33.664658,-114.007439,484.4,0.14,18
590757,25.61,418.44,31,28.29,-8.7,4.4,-0.24,10:41:22,33.664658,-114.007439,484.4,0.05,18
591758,25.6,418.53,30,28.34,-8.7,4.41,-0.25,10:41:23,33.664658,-114.007439,484.4,0.05,17
592759,25.59,418.53,31,28.3,-8.7,4.4,-0.25,10:41:24,33.664658,-114.007439,484.4,0.01,18
593760,25.58,418.61,30,28.3,-8.69,4.41,-0.25,10:41:25,33.664658,-114.007439,484.4,0.02,18
594761,25.57,418.61,29,28.25,-8.7,4.41,-0.26,10:41:26,33.664658,-114.007439,484.4,0.02,18
595762,25.55,418.61,29,28.28,-8.69,4.4,-0.24,10:41:27,33.664658,-114.007439,484.4,0.1,18
596763,25.55,418.7,29,28.28,-8.7,4.4,-0.25,10:41:28,33.664658,-114.007439,484.3,0.14,18
597764,25.54,418.7,30,28.31,-8.69,4.41,-0.24,10:41:29,33.664658,-114.007439,484.3,0.05,18
598765,25.54,418.61,35,28.25,-8.69,4.41,-0.25,10:41:30,33.664658,-114.007439,484.3,0.07,18
599766,25.53,418.53,35,28.3,-8.69,4.4,-0.24,10:41:31,33.664658,-114.007439,484.2,0.06,18
600767,25.52,418.53,34,28.31,-8.69,4.4,-0.25,10:41:32,33.664658,-114.007439,484.3,0.12,18
time_since_start,bme_temp,bme_alt,uv,ism_temp,acc_x,acc_y,acc_z,gps_time,latitude,longitude,gps_alt,speed,sats
300938,28.21,1037.18,0,23.53,-4.16,6.48,3.9,3:55:58,34.219475,-112.946251,1084.1,1.63,14
301939,28.22,1037.08,0,23.62,-7.01,8.43,4.87,3:55:59,34.219467,-112.946251,1084,2.12,14
302940,28.23,1036.99,0,23.61,-6.02,7.48,4.1,3:56:00,34.219456,-112.946251,1084,2.07,16
303941,28.24,1036.9,0,23.67,-5.41,6.18,4.69,3:56:01,34.219452,-112.946251,1084.1,1.67,16
304942,28.25,1036.81,0,23.64,-4.94,7.06,4.51,3:56:02,34.219448,-112.946251,1084.1,1.17,16
305943,28.25,1036.71,0,23.66,-4.96,7.07,4.64,3:56:03,34.219448,-112.946251,1084.1,0.4,16
306944,28.26,1036.62,0,23.66,-5.13,6.97,4.91,3:56:04,34.219448,-112.946251,1084.1,0.45,16
307945,28.27,1036.62,0,23.59,-5.61,6.24,4.41,3:56:05,34.219448,-112.946251,1084.1,0.16,15
308946,28.28,1036.62,0,23.57,-4.35,7.6,4.29,3:56:06,34.219448,-112.946251,1084.1,0.23,15
309947,28.29,1036.62,0,23.63,-5.43,7.45,4.19,3:56:07,34.219448,-112.946251,1084,1.48,15
310948,28.3,1036.53,0,23.6,-5.28,7.61,3.41,3:56:08,34.219448,-112.946251,1084,1.09,15
311949,28.3,1036.62,0,23.63,-5.86,6.3,4.04,3:56:09,34.219456,-112.946243,1084,1.6,15
312950,28.31,1036.62,0,23.65,-4.21,7.98,5.62,3:56:10,34.21946,-112.946243,1084,1.73,15
313951,28.32,1036.62,0,23.66,-4.6,6.55,5.2,3:56:11,34.21946,-112.946228,1084,1.58,16
314952,28.33,1036.53,0,23.65,-5.38,6.92,5.01,3:56:12,34.21946,-112.946228,1084,0.94,16
315953,28.34,1036.44,0,23.68,-3.69,5.97,4.82,3:56:13,34.21946,-112.946228,1084,0.45,16
316954,28.34,1036.44,0,23.69,-4.15,6.8,2.92,3:56:14,34.219452,-112.946243,1084,0.49,16
317955,28.35,1036.44,0,23.66,-4.75,6.44,5.22,3:56:15,34.219448,-112.946243,1084.1,2.45,16
318956,28.36,1036.53,0,23.65,-4.65,7.83,3.93,3:56:16,34.219448,-112.946243,1083.9,1.14,16
319957,28.37,1036.53,0,23.66,-3.44,9.15,3.25,3:56:17,34.219444,-112.946243,1083.7,0.52,16
320958,28.38,1036.53,0,23.7,-5.44,6.4,10.81,3:56:18,34.21944,-112.946243,1083.7,1.29,16
321959,28.39,1036.53,0,23.67,-6.11,8.44,4.17,3:56:19,34.21944,-112.946243,1083.7,0.48,16
322960,28.39,1036.62,0,23.7,-3.99,8.21,3.81,3:56:20,34.219437,-112.946243,1083.8,0.35,16
323961,28.4,1036.53,0,23.59,-3.77,8.2,3.79,3:56:21,34.219437,-112.946243,1083.7,0.23,16
324962,28.41,1036.62,0,23.64,-3.85,7.79,3.65,3:56:22,34.219437,-112.946243,1083.7,0.2,16
325963,28.42,1036.53,0,23.68,-4.08,8.37,3.51,3:56:23,34.219437,-112.946243,1083.7,0.18,16
326964,28.42,1036.53,0,23.65,-4.08,8.16,3.49,3:56:24,34.219437,-112.946243,1083.6,0.14,16
327965,28.43,1036.53,0,23.66,-3.93,8.12,3.61,3:56:25,34.219437,-112.946243,1083.6,0.14,15
328966,28.44,1036.53,0,23.66,-4.67,7.85,3.7,,,,,,
329967,28.45,1036.44,0,23.7,-4.19,7.99,3.87,3:56:27,34.21944,-112.946243,1083.6,0.81,12
330968,28.45,1036.44,0,23.7,-1.21,7.57,5.25,3:56:28,34.219433,-112.946243,1083.7,1.86,14
331969,28.46,1036.35,0,23.69,-3.87,7.32,3.55,3:56:29,34.219429,-112.946228,1083.7,1.97,14
332970,28.47,1036.44,0,23.7,-2.95,10.05,1.8,3:56:30,34.219425,-112.946228,1083.6,1.68,15
333971,28.47,1036.35,0,23.66,-4.27,8.05,3.74,3:56:31,34.219421,-112.946213,1083.5,1.25,15
334972,28.48,1036.25,0,23.68,-3.97,7.92,3.16,3:56:32,34.219433,-112.946228,1083.5,0.39,15
335973,28.49,1036.25,0,23.68,-4.6,8.24,3.17,3:56:33,34.219437,-112.946228,1083.5,0.26,15
336974,28.5,1036.35,0,23.71,-4.51,8.43,3.11,3:56:34,34.21944,-112.946228,1083.5,0.21,15
337975,28.5,1036.35,0,23.73,-4.48,8.34,3.15,3:56:35,34.21944,-112.946228,1083.6,0.13,15
338976,28.51,1036.35,0,23.69,-4.47,8.15,3.14,3:56:36,34.219444,-112.946228,1083.6,0.14,15
339977,28.52,1036.35,0,23.7,-4.22,8.19,3.12,3:56:37,34.219444,-112.946228,1083.6,0.16,15
340978,28.53,1036.25,0,23.68,-4.36,8.19,3.35,3:56:38,34.219444,-112.946228,1083.6,0.12,16
341979,28.53,1036.25,0,23.7,-4.37,8.18,3.16,3:56:39,34.219444,-112.946228,1083.6,0.09,16
342980,28.54,1036.25,0,23.7,-4.34,8.26,3.17,3:56:40,34.219444,-112.946228,1083.7,0.09,16
343981,28.55,1036.16,0,23.71,-4.41,8.17,3.25,3:56:41,34.219444,-112.946228,1083.7,0.07,16
344982,28.56,1036.16,0,23.73,-4.15,8.51,2.99,3:56:42,34.219448,-112.946228,1083.7,0.07,16
345983,28.56,1036.25,0,23.73,-4.27,6.7,2.49,3:56:43,34.219448,-112.946228,1083.8,0.06,16
346984,28.57,1036.16,0,23.66,-4.35,8.17,3.24,3:56:44,34.219448,-112.946228,1083.8,0.06,16
347985,28.58,1036.16,0,23.69,-4.43,8.23,3.13,3:56:45,34.219448,-112.946228,1083.9,0.09,16
348986,28.59,1036.07,0,23.72,-4.44,8.14,3.13,3:56:46,34.219448,-112.946213,1084.1,0.08,16
349987,28.59,1036.16,0,23.7,-4.38,8.04,3.01,3:56:47,34.219452,-112.946213,1084.1,0.07,16
350988,28.6,1036.07,0,23.72,-4.21,8.3,3.04,3:56:48,34.219452,-112.946213,1084.1,0.06,16
351989,28.61,1036.07,0,23.7,-4.49,8.23,3.5,3:56:49,34.219452,-112.946213,1084.1,0.03,16
352990,28.61,1036.07,0,23.73,-4.35,8.02,3.02,3:56:50,34.219452,-112.946213,1084.1,0.02,16
353991,28.62,1036.07,0,23.72,-4.23,8.06,2.92,3:56:51,34.219452,-112.946213,1084,0.02,16
354992,28.63,1036.07,0,23.73,-4.53,8.42,3.04,3:56:52,34.219452,-112.946213,1084.1,0.01,16
355993,28.63,1036.07,0,23.71,-4.35,8.17,3.25,3:56:53,34.219452,-112.946213,1084.2,0.02,16
356994,28.64,1036.07,0,23.74,-4.24,8.05,3.04,3:56:54,34.219452,-112.946213,1084.2,0.02,16
357995,28.65,1035.89,0,23.73,-4.52,7.88,3.03,3:56:55,34.219452,-112.946213,1084.2,0.02,16
358996,28.65,1035.89,0,23.7,-4.31,8.27,3.26,3:56:56,34.219452,-112.946213,1084.2,0.01,11
359997,28.66,1035.89,0,23.76,-4.43,8.34,2.92,3:56:57,34.219456,-112.946213,1084.2,0.01,14
360998,28.67,1035.89,0,23.72,-4.22,8.03,3.24,3:56:58,34.219456,-112.946213,1084.3,0,15
361999,28.67,1035.98,0,23.73,-4.43,8.25,3.19,3:56:59,34.219456,-112.946213,1084.3,0,15
363000,28.68,1035.98,0,23.73,-4.5,8.32,2.97,3:57:00,34.219456,-112.946213,1084.3,0,15
364001,28.69,1035.98,0,23.74,-4.45,8.25,2.98,3:57:01,34.21946,-112.946213,1084.4,0,16
365002,28.7,1036.07,0,23.73,-4.36,8.29,2.96,3:57:02,34.21946,-112.946213,1084.4,0,16
366003,28.7,1036.07,0,23.73,-4.22,7.97,3.26,3:57:03,34.21946,-112.946213,1084.4,0.01,16
367004,28.71,1036.16,0,23.73,-4.4,8.25,3.22,3:57:04,34.219463,-112.946213,1084.4,0.02,16
368005,28.71,1036.16,0,23.73,-4.35,8.09,3.1,3:57:05,34.219463,-112.946213,1084.5,0.03,16
369006,28.72,1036.07,0,23.73,-5.4,7.05,2.39,3:57:06,34.219463,-112.946213,1084.5,0.06,16
370007,28.73,1036.07,0,23.76,-4.29,6.18,3.47,3:57:07,34.219463,-112.946213,1084.5,0.08,16
371008,28.73,1036.16,0,23.76,-4.62,7.5,4.47,3:57:08,34.21946,-112.946213,1084.5,0.12,16
372009,28.74,1036.07,0,23.72,-5.98,7.09,0.08,3:57:09,34.219456,-112.946213,1084.5,1.24,16
373010,28.75,1035.89,0,23.7,-4.7,11.7,2.43,3:57:10,34.219448,-112.946205,1084.5,2.73,17
374011,28.75,1035.52,0,23.71,-2.96,7.96,3.84,3:57:11,34.219429,-112.94619,1084.5,5.87,17
375012,28.76,1035.06,0,23.74,-5.91,10.97,4.8,3:57:12,34.219406,-112.946167,1084.5,5.48,17
376013,28.77,1034.87,0,23.73,-3.52,8.83,2.24,3:57:13,34.219383,-112.946152,1084.5,4.78,17
377014,28.77,1034.6,0,23.72,-5.27,9.07,1.31,3:57:14,34.219368,-112.946136,1084.7,2.79,17
378015,28.77,1034.41,0,23.73,-5.03,8.06,2.37,3:57:15,34.21936,-112.946136,1084.7,0.7,17
379016,28.78,1034.32,0,23.73,-5,7.98,2.33,3:57:16,34.21936,-112.946121,1084.7,0.16,17
380017,28.78,1034.23,0,23.77,-5.11,8,2.26,3:57:17,34.21936,-112.946121,1084.6,0.14,17
381018,28.78,1034.23,0,23.71,-4.98,8.04,2.27,3:57:18,34.219357,-112.946121,1084.5,0.08,17
382019,28.78,1034.23,0,23.73,-5.07,8.07,2.32,3:57:19,34.219357,-112.946121,1084.5,0.01,17
383020,28.78,1034.23,0,23.72,-5.2,8.23,2.34,3:57:20,34.219357,-112.946121,1084.5,0.01,17
384021,28.78,1034.14,0,23.75,-5.39,7.86,2.37,3:57:21,34.219357,-112.946121,1084.5,0.01,16
385022,28.79,1034.14,0,23.78,-4.99,5.25,3.42,3:57:22,34.219357,-112.946121,1084.5,0.16,17
386023,28.79,1033.95,0,23.73,-8.04,12.84,2.7,3:57:23,34.219357,-112.946121,1084.5,2.35,17
387024,28.79,1034.04,0,23.77,-6.89,9.77,2.68,3:57:24,34.219345,-112.946121,1084.4,4.77,17
388025,28.79,1033.95,0,23.7,-5.69,7.21,3.79,3:57:25,34.21933,-112.946098,1084.2,5.9,17
389026,28.79,1033.68,0,23.7,-5.97,11.88,3.05,3:57:26,34.219307,-112.946083,1084,7.09,17
390027,28.79,1033.68,0,23.72,-8.35,11.37,3.71,3:57:27,34.21928,-112.94606,1083.7,7.6,17
391028,28.79,1033.59,0,23.73,-6.77,7.01,0.54,3:57:28,34.219254,-112.946037,1083.4,7.87,17
392029,28.79,1033.4,0,23.75,-5.67,9.45,5.88,3:57:29,34.219231,-112.946007,1082.8,7.95,17
393030,28.79,1033.22,0,23.79,-4.32,5.77,4.02,3:57:30,34.2192,-112.945984,1082.4,7.87,17
394031,28.79,1032.85,0,23.79,-2.91,5.13,1.48,3:57:31,34.219177,-112.945961,1082.2,7.92,17
395032,28.79,1032.48,0,23.73,-4.49,3.95,2.72,3:57:32,34.219151,-112.945923,1081.7,8.11,17
396033,28.78,1032.3,0,23.75,-6.51,8.21,3.04,3:57:33,34.219124,-112.945892,1081.6,8.56,17
397034,28.78,1032.11,0,23.76,-6.67,10.4,1.58,3:57:34,34.219097,-112.945869,1081.2,9.18,17
398035,28.78,1031.74,0,23.74,-4.2,5.45,2.85,3:57:35,34.21907,-112.945831,1081.2,9.7,17
399036,28.78,1031.47,0,23.73,-4.53,7.08,2.8,3:57:36,34.219036,-112.945808,1081.4,9.66,17
400037,28.78,1031.19,0,23.73,-4.64,4.97,0.99,3:57:37,34.219009,-112.945763,1081.3,9.13,17
401038,28.78,1031.01,0,23.71,-5.69,7.6,3.08,3:57:38,34.218979,-112.94574,1081.3,8.18,17
402039,28.78,1030.73,0,23.74,-5.27,10.03,1.63,3:57:39,34.218952,-112.945724,1081.3,7.17,17
403040,28.78,1030.55,0,23.73,-5.73,8.7,4.95,3:57:40,34.218929,-112.945702,1081.2,6.27,17
404041,28.78,1030.27,0,23.79,-6.31,9.92,6.83,3:57:41,34.218903,-112.945686,1080.9,6.26,17
405042,28.78,1030.09,0,23.77,-6.3,8.8,4.46,3:57:42,34.218876,-112.945679,1080.3,6.23,17
406043,28.79,1029.9,0,23.72,-6.5,9.33,1.61,3:57:43,34.218853,-112.945663,1080,6.17,17
407044,28.79,1029.72,0,23.76,-5.67,5.58,0.25,3:57:44,34.218822,-112.945648,1079.8,7.35,17
408045,28.79,1029.72,0,23.73,-9.21,11.11,3.06,3:57:45,34.218788,-112.945648,1079.6,8.49,17
409046,28.78,1029.35,0,23.74,-4.27,5.22,-0.51,3:57:46,34.21875,-112.945641,1079.3,9.85,17
410047,28.78,1029.26,0,23.73,-10.38,10.25,5.94,3:57:47,34.218708,-112.945641,1079.2,9.35,17
411048,28.78,1028.89,0,23.77,-4.38,7.87,1.14,3:57:48,34.21867,-112.945625,1079,8.23,17
412049,28.77,1028.62,0,23.76,-7.5,8.31,-1.54,3:57:49,34.218636,-112.94561,1078.7,7.15,17
413050,28.77,1028.43,0,23.7,-5.04,6.45,1.36,3:57:50,34.218609,-112.94561,1078.1,7.07,17
414051,28.77,1028.25,0,23.71,-11.06,6.6,3.16,3:57:51,34.218575,-112.945602,1077.8,7.09,17
415052,28.77,1027.88,0,23.8,-4.64,7.42,0.27,3:57:52,34.218552,-112.945587,1077.6,6.91,17
416053,28.77,1027.88,0,23.79,-6.8,9.47,2.18,3:57:53,34.218525,-112.945587,1077.4,6.89,17
417054,28.78,1027.97,0,23.73,-5.72,5.49,1.8,3:57:54,34.218494,-112.945572,1077,6.96,17
418055,28.78,1027.7,0,23.74,-5.36,6.91,3.2,3:57:55,34.218472,-112.945564,1076.6,7.25,17
419056,28.78,1027.6,0,23.71,-5.64,6.44,3.66,3:57:56,34.218437,-112.945549,1076.3,7.53,17
420057,28.78,1027.51,0,23.75,-6.52,6.06,-0.3,3:57:57,34.21841,-112.945534,1076,7.92,17
421058,28.78,1027.24,0,23.79,-5.24,5.06,1.6,3:57:58,34.218376,-112.945534,1075.5,8.15,17
422059,28.78,1027.14,0,23.73,-7.63,9.09,2.51,3:57:59,34.218349,-112.945526,1075.6,7.73,17
423060,28.78,1027.05,0,23.75,-4.54,5.25,1.86,3:58:00,34.218319,-112.945511,1075.2,7.35,17
424061,28.78,1026.78,0,23.78,-7.16,9.19,3.15,3:58:01,34.218292,-112.945511,1074.9,6.61,16
425062,28.79,1026.5,0,23.75,-6.64,6,2.01,3:58:02,34.218269,-112.945496,1074.9,5.88,17
426063,28.78,1026.32,0,23.73,-5.69,6.89,0.99,3:58:03,34.218246,-112.945496,1075.1,5.05,17
427064,28.78,1026.04,0,23.72,-7.51,6.13,2.63,3:58:04,34.218227,-112.945496,1075.4,4.64,17
428065,28.78,1025.86,0,23.73,-6.44,7.16,4.16,3:58:05,34.218208,-112.945488,1075.4,5.36,17
429066,28.78,1025.67,0,23.77,-7.05,7.71,1.79,3:58:06,34.218182,-112.945488,1075.2,6.2,16
430067,28.78,1025.67,0,23.78,-3.95,3.24,0.66,3:58:07,34.218159,-112.945488,1075.1,6.66,16
431068,28.78,1025.58,0,23.79,-7.37,4.67,4.29,3:58:08,34.218136,-112.945473,1074.7,6.62,16
432069,28.77,1025.3,0,23.71,-7.27,9.32,4.01,3:58:09,34.218109,-112.945457,1074.7,7.16,16
433070,28.76,1025.4,0,23.77,-1.11,1.07,0.19,3:58:10,34.218079,-112.945457,1074.9,7.55,17
434071,28.76,1025.4,0,23.75,-5.24,3.95,1.63,3:58:11,34.218048,-112.94545,1075.5,8.1,17
435072,28.76,1025.03,0,23.76,-3.73,4.76,-0.72,3:58:12,34.218014,-112.94545,1075.7,8.69,17
436073,28.76,1024.66,0,23.73,-5.81,7.16,0.28,3:58:13,34.217979,-112.94545,1075.8,8.37,17
437074,28.76,1024.38,0,23.73,-5.82,6.92,2.2,3:58:14,34.217941,-112.945457,1075.8,8.13,17
438075,28.76,1024.02,0,23.74,-5.04,3.93,0.63,3:58:15,34.217911,-112.945457,1075.8,7.85,17
439076,28.76,1023.56,0,23.75,-6.68,8.1,0.47,3:58:16,34.21788,-112.945457,1075.8,7.54,17
440077,28.76,1023.37,0,23.74,-4.3,3.52,0.84,3:58:17,34.21785,-112.945457,1075.7,6.96,17
441078,28.75,1023.28,0,23.71,-5.66,8.03,-0.05,3:58:18,34.217819,-112.945473,1075.6,6.69,17
442079,28.75,1023.1,0,23.74,-7.56,5.63,-0.13,3:58:19,34.217793,-112.945473,1075.6,7.19,17
443080,28.75,1023,0,23.71,-7.03,4.7,3.55,3:58:20,34.217762,-112.945473,1075.4,7.41,17
444081,28.75,1022.73,0,23.7,-4.02,3.8,0.14,3:58:21,34.217731,-112.945473,1075.2,7.46,17
445082,28.74,1022.54,0,23.72,-5.67,7.95,-1.19,3:58:22,34.217701,-112.945473,1074.9,7.53,17
446083,28.74,1022.27,0,23.7,-2.85,3.46,-0.02,3:58:23,34.217674,-112.945473,1074.6,7.55,16
447084,28.74,1021.99,0,23.75,-5.15,5.1,1.74,3:58:24,34.21764,-112.945473,1074.4,7.47,17
448085,28.73,1021.9,0,23.75,-9.21,7.19,3.51,3:58:25,34.217609,-112.945473,1074.3,7.41,17
449086,28.73,1021.44,0,23.71,-6.39,6.44,2.19,3:58:26,34.217583,-112.945457,1074,7.46,17
450087,28.72,1021.17,0,23.75,-4.86,4.41,1.26,3:58:27,34.217548,-112.945457,1073.8,7.24,17
451088,28.72,1021.07,0,23.73,-10.16,5.06,4.54,3:58:28,34.217522,-112.945457,1073.6,7.33,17
452089,28.71,1020.98,0,23.71,-6.04,4.08,1.87,3:58:29,34.217487,-112.945457,1073.6,7.7,17
453090,28.71,1020.52,0,23.77,-7.83,8.28,0.88,3:58:30,34.217457,-112.945457,1073.7,7.63,17
454091,28.71,1020.15,0,23.72,-4.98,7.74,-0.46,3:58:31,34.217426,-112.945457,1073.6,7.4,17
455092,28.71,1019.79,0,23.77,-8.9,7.72,2.63,3:58:32,34.217396,-112.945457,1073.6,7.04,17
456093,28.71,1019.51,0,23.74,-6.84,5.09,1.24,3:58:33,34.217369,-112.945457,1073.6,6.03,17
457094,28.71,1019.42,0,23.79,-6.25,3.91,3.14,3:58:34,34.217346,-112.945457,1073.5,5.04,16
458095,28.71,1019.05,0,23.74,-8.75,7.04,3.01,3:58:35,34.217327,-112.94545,1073.6,4.85,17
459096,28.71,1018.87,0,23.77,-9.34,6.25,1.21,3:58:36,34.217308,-112.94545,1073.4,5.33,17
460097,28.71,1018.78,0,23.73,-7.64,4.23,1.64,3:58:37,34.217285,-112.94545,1073.1,5.86,17
461098,28.71,1018.78,0,23.74,-3.07,2.29,-1.19,3:58:38,34.217262,-112.94545,1073,6.57,17
462099,28.71,1018.59,0,23.75,-14.91,3.67,3.17,3:58:39,34.217239,-112.94545,1072.9,6.66,17
463100,28.71,1018.32,0,23.72,-9.8,4.03,0.03,3:58:40,34.217213,-112.94545,1072.7,4.94,17
464101,28.71,1018.04,0,23.73,-7.57,5.55,0.52,3:58:41,34.217197,-112.94545,1072.3,3.91,17
465102,28.7,1017.86,0,23.73,-8.69,4.57,1.67,3:58:42,34.217182,-112.94545,1072.4,3.25,17
466103,28.7,1017.67,0,23.73,-8.7,4.36,1.35,3:58:43,34.217171,-112.94545,1072.5,0.14,17
467104,28.7,1017.58,0,23.75,-8.13,5.47,1.46,3:58:44,34.217167,-112.94545,1072.6,0.01,16
468105,28.7,1017.49,0,23.75,-8.54,4.71,1.16,3:58:45,34.217167,-112.94545,1072.6,0.02,16
469106,28.7,1017.4,0,23.77,-8.55,4.87,1.28,3:58:46,34.217167,-112.94545,1072.6,0.01,16
470107,28.71,1017.31,0,23.77,-8.5,4.74,1.37,3:58:47,34.217167,-112.94545,1072.6,0,16
471108,28.71,1017.21,0,23.74,-8.48,4.87,1.3,3:58:48,34.217167,-112.94545,1072.6,0.01,16
472109,28.71,1017.12,0,23.79,-8.55,4.92,1.39,3:58:49,34.217167,-112.94545,1072.6,0,16
473110,28.71,1017.21,0,23.76,-8.37,4.74,1.31,3:58:50,34.217167,-112.94545,1072.6,0,16
474111,28.71,1017.12,0,23.75,-8.63,4.83,1.37,3:58:51,34.217167,-112.94545,1072.6,0,16
475112,28.71,1017.12,0,23.74,-8.56,4.77,1.33,3:58:52,34.217167,-112.94545,1072.6,0,16
476113,28.71,1017.12,0,23.78,-7.95,5.17,0.89,3:58:53,34.217167,-112.94545,1072.6,0.01,16
477114,28.71,1017.12,0,23.78,-8.53,4.66,1.23,3:58:54,34.217167,-112.94545,1072.6,0,16
478115,28.72,1017.12,0,23.75,-9.07,4.16,1.19,3:58:55,34.217167,-112.94545,1072.6,0.01,16
479116,28.72,1017.12,0,23.74,-9.07,4.54,1.1,3:58:56,34.217167,-112.94545,1072.6,0.03,16
480117,28.72,1017.12,0,23.76,-8.32,3.46,1.98,3:58:57,34.217163,-112.94545,1072.7,1.69,16
481118,28.72,1017.03,0,23.74,-10.67,4.32,-0.43,3:58:58,34.217155,-112.94545,1072.6,2.61,16
482119,28.72,1016.94,0,23.78,-9.4,4.71,1.93,3:58:59,34.217144,-112.94545,1072.6,3.8,16
483120,28.71,1016.94,0,23.73,-7.37,4.68,4.52,3:59:00,34.217125,-112.94545,1072.6,4.7,16
484121,28.7,1016.94,0,23.73,-7.57,3.98,-0.19,3:59:01,34.217106,-112.94545,1072.5,5.05,16
485122,28.7,1016.94,0,23.76,-6.5,3.8,0.1,3:59:02,34.217083,-112.94545,1072.5,5.27,16
486123,28.69,1016.85,0,23.73,-7.61,3.4,1.46,3:59:03,34.217064,-112.94545,1072.4,5.78,16
487124,28.69,1016.85,0,23.84,-10.57,5.69,-0.01,3:59:04,34.217041,-112.94545,1072.4,6.02,16
488125,28.69,1016.66,0,23.77,-9.33,4.68,1.93,3:59:05,34.217014,-112.94545,1072.4,6.56,17
489126,28.69,1016.57,0,23.78,-5.66,4.72,0.85,3:59:06,34.216988,-112.94545,1072.5,6.64,17
490127,28.69,1016.29,0,23.75,-9.1,6.59,2.55,3:59:07,34.216965,-112.94545,1072.1,6.15,17
491128,28.68,1015.93,0,23.73,-10.11,7.31,1.89,3:59:08,34.216938,-112.945435,1071.8,5.48,17
492129,28.68,1015.84,0,23.81,-6.62,3.49,0.5,3:59:09,34.216919,-112.945435,1071.7,4.9,17
493130,28.68,1015.65,0,23.74,-7.86,2.15,2.53,3:59:10,34.216896,-112.945435,1071.5,4.97,17
494131,28.67,1015.56,0,23.75,-3.22,0.23,1.04,3:59:11,34.216877,-112.945435,1071.2,5.42,17
495132,28.66,1015.37,0,23.79,-5.13,3.38,-1.49,3:59:12,34.216854,-112.945435,1070.8,6.3,17
496133,28.66,1015.19,0,23.79,-10.69,5.91,3.51,3:59:13,34.216827,-112.945419,1070.5,6.87,17
497134,28.65,1015.01,0,23.79,-11.71,4.02,3.7,3:59:14,34.216801,-112.945419,1070.2,7.08,17
498135,28.65,1014.73,0,23.78,-10.31,6.68,0.53,3:59:15,34.21677,-112.945419,1069.9,7.04,17
499136,28.65,1014.46,0,23.78,-10.81,4.13,1.76,3:59:16,34.216743,-112.945419,1069.7,7.08,17
500137,28.65,1014.18,0,23.76,-11.19,4.78,0.43,3:59:17,34.216713,-112.945419,1069.5,7.06,17
501138,28.64,1014,0,23.73,-6.04,4.78,-0.47,3:59:18,34.216686,-112.945412,1069.4,7.37,17
502139,28.64,1013.81,0,23.82,-8.64,5.41,4.79,3:59:19,34.216656,-112.945412,1069,7.44,17
503140,28.64,1013.54,0,23.76,-6.17,4.45,1.52,3:59:20,34.216629,-112.945396,1068.6,7.22,17
504141,28.63,1013.35,0,23.79,-8.11,4.06,2.23,3:59:21,34.216602,-112.945396,1067.9,7.67,17
505142,28.63,1013.26,0,23.75,-9.9,4.27,0.84,3:59:22,34.216568,-112.945381,1067.3,8.44,17
506143,28.63,1012.9,0,23.79,-11.04,6.25,3.8,3:59:23,34.216534,-112.945366,1066.9,8.97,17
507144,28.62,1012.53,0,23.79,-6.2,6.89,0.46,3:59:24,34.216499,-112.945358,1066.7,9.23,17
508145,28.62,1012.44,0,23.8,-9.97,5.05,2.17,3:59:25,34.216461,-112.945343,1066.4,8.82,17
509146,28.62,1012.07,0,23.76,-7.39,5.09,2.02,3:59:26,34.216431,-112.945328,1066.1,7.49,17
510147,28.61,1011.61,0,23.82,-4.45,3.57,1.37,3:59:27,34.216404,-112.94532,1065.8,6.3,17
511148,28.6,1011.43,0,23.82,-5.22,0.89,5.29,3:59:28,34.216381,-112.94532,1065.5,5.87,17
512149,28.59,1011.15,0,23.78,-9.16,4.47,0.27,3:59:29,34.216358,-112.945305,1065.1,5.41,17
513150,28.57,1011.06,0,23.77,-9.62,5.06,1.27,3:59:30,34.216335,-112.945305,1064.9,5.93,17
514151,28.56,1010.69,0,23.8,-10.54,5.24,0.52,3:59:31,34.216312,-112.945305,1064.4,6.41,17
515152,28.55,1010.42,0,23.78,-6.83,8.58,1.78,3:59:32,34.21629,-112.94529,1064.1,6.65,17
516153,28.55,1010.32,0,23.8,-12.11,6.92,-0.85,3:59:33,34.216263,-112.94529,1064,6.65,17
517154,28.54,1010.05,0,23.79,-7.6,4.95,1.98,3:59:34,34.216236,-112.945282,1063.8,6.65,17
518155,28.54,1009.86,0,23.81,-7.41,7.03,1.44,3:59:35,34.216209,-112.945282,1063.7,6.85,17
519156,28.53,1009.68,0,23.82,-3.29,2.93,1.89,3:59:36,34.216183,-112.945267,1063.4,7.47,17
520157,28.53,1009.41,0,23.77,-9.81,7.16,0.39,3:59:37,34.216152,-112.945267,1063,8.29,17
521158,28.52,1009.22,0,23.82,-4.5,2.25,1.66,3:59:38,34.216122,-112.945244,1062.6,9.25,17
522159,28.51,1009.22,0,23.83,-7.31,8.71,0.55,3:59:39,34.216084,-112.945229,1062.2,10.01,17
523160,28.5,1009.04,0,23.78,-13.06,7.72,1.05,3:59:40,34.216049,-112.945213,1061.9,9.37,17
524161,28.5,1008.67,0,23.79,-8.93,8.14,1.52,3:59:41,34.216015,-112.945206,1061.4,7.47,17
525162,28.49,1008.39,0,23.82,-9.16,4.3,2.48,3:59:42,34.215992,-112.94519,1060.9,5.35,17
526163,28.48,1008.12,0,23.79,-8.75,6.01,1.09,3:59:43,34.215973,-112.945175,1060.6,4.43,17
527164,28.48,1007.94,0,23.77,-8.19,4.5,1.18,3:59:44,34.215958,-112.945175,1060.1,4.14,17
528165,28.48,1007.84,0,23.83,-8.48,4.92,3.46,3:59:45,34.215942,-112.945168,1059.6,4.4,17
529166,28.47,1007.57,0,23.8,-7.08,5.99,-0.74,3:59:46,34.215923,-112.945168,1059.3,4.86,17
530167,28.47,1007.38,0,23.82,-5.79,2.75,2.09,3:59:47,34.215904,-112.945152,1059,5.31,17
531168,28.46,1007.48,0,23.79,-6.51,3.71,0.13,3:59:48,34.215881,-112.945137,1058.7,5.81,17
532169,28.46,1007.38,0,23.82,-6.29,5.16,2.35,3:59:49,34.215858,-112.945129,1058.2,6.56,17
533170,28.45,1007.29,0,23.82,-3.52,3.86,0.4,3:59:50,34.215832,-112.945114,1057.7,7.01,16
534171,28.44,1007.2,0,23.8,-8.17,4.52,2.25,3:59:51,34.215809,-112.945099,1057.2,6.95,17
535172,28.43,1007.11,0,23.82,-8.29,5.81,2.04,3:59:52,34.21579,-112.945091,1057.2,4.55,17
536173,28.43,1006.93,0,23.83,-8.29,5.02,2.18,3:59:53,34.215775,-112.945091,1057.2,2.51,17
537174,28.42,1006.83,0,23.79,-8.49,4.91,2.07,3:59:54,34.215775,-112.945091,1057.2,0.1,17
538175,28.42,1006.56,0,23.81,-8.71,4.03,1.93,3:59:55,34.215775,-112.945076,1057.2,0.03,17
539176,28.42,1006.56,0,23.88,-8.92,4.4,0.19,3:59:56,34.215771,-112.945076,1057.2,0.07,17
540177,28.41,1006.56,0,23.79,-8.62,2.82,2.1,3:59:57,34.215763,-112.945076,1057.3,0.29,17
541178,28.41,1006.83,0,23.83,-8.21,3.66,2.05,3:59:58,34.215744,-112.945076,1057.3,5.65,17
542179,28.41,1006.93,0,23.85,-9.5,3.38,0.72,3:59:59,34.215717,-112.945061,1057.1,6.95,17
543180,28.41,1006.93,0,23.86,-11.28,3.57,2.1,4:00:00,34.215691,-112.945053,1057,7.59,17
544181,28.4,1006.65,0,23.81,-9.59,4.34,4.88,4:00:01,34.215656,-112.945053,1056.8,8.33,17
545182,28.39,1006.37,0,23.95,-11.59,6.92,5.16,4:00:02,34.215622,-112.945038,1056.8,8.98,17
546183,28.39,1006.28,0,23.88,-7.57,5.34,-0.31,4:00:03,34.215584,-112.945023,1056.6,9.05,17
547184,28.38,1006.37,0,23.86,-11.27,3.35,9.23,4:00:04,34.215549,-112.945023,1056.6,9.29,17
548185,28.36,1006.19,0,23.85,-9.83,2.85,2.49,4:00:05,34.215511,-112.945015,1056.4,9.29,17
549186,28.35,1006.01,0,23.83,-8.37,5.96,-0.05,4:00:06,34.215473,-112.945015,1056.1,9.28,17
550187,28.34,1006.01,0,23.8,-9.59,3.48,1.39,4:00:07,34.215435,-112.945,1055.8,9.23,17
551188,28.33,1006.19,0,23.84,-5.73,3.97,-0.04,4:00:08,34.215397,-112.944984,1055.5,8.41,17
552189,28.32,1005.92,0,23.84,-4.94,3.3,2.14,4:00:09,34.215366,-112.944984,1055.2,8.34,17
553190,28.32,1005.92,0,23.82,-8.3,3.13,2.21,4:00:10,34.215332,-112.944969,1055,8.37,17
554191,28.31,1005.73,0,23.83,-9.12,3.07,3.03,4:00:11,34.215298,-112.944969,1054.8,8.45,17
555192,28.31,1005.64,0,23.83,-7.61,6.28,1.31,4:00:12,34.21526,-112.944962,1054.6,8.74,17
556193,28.31,1005.46,0,23.83,-6.45,2.07,1.06,4:00:13,34.215225,-112.944946,1054.4,8.98,17
557194,28.3,1005.37,0,23.81,-4.97,1.1,2.57,4:00:14,34.215191,-112.944946,1054.4,9.25,17
558195,28.3,1005.27,0,23.77,-9.27,2.66,3.51,4:00:15,34.215157,-112.944931,1054.3,9.06,17
559196,28.29,1004.81,0,23.82,-5.59,3,4.16,4:00:16,34.215118,-112.944931,1054.2,9.12,17
560197,28.28,1004.81,0,23.87,-7.89,2.92,1.79,4:00:17,34.21508,-112.944923,1054,9.55,17
561198,28.28,1004.63,1,23.84,-4.8,4.43,1.64,4:00:18,34.215042,-112.944923,1053.9,9.77,17
562199,28.27,1004.26,0,23.87,-8.07,4.06,-1.01,4:00:19,34.215004,-112.944923,1053.7,9.78,17
563200,28.26,1004.08,0,23.83,-7.95,6.29,0.74,4:00:20,34.214962,-112.944908,1053.6,9.84,17
564201,28.26,1003.9,0,23.82,-11.52,5.87,-0.54,4:00:21,34.214924,-112.944908,1053.4,9.88,17
565202,28.25,1003.71,0,23.84,-8.33,6.92,1.25,4:00:22,34.214886,-112.944893,1053.3,9.86,17
566203,28.25,1003.8,0,23.8,-6.99,2.75,-0.02,4:00:23,34.214844,-112.944893,1053,9.85,17
567204,28.24,1003.44,0,23.88,-11.4,4.23,4.42,4:00:24,34.214806,-112.944885,1052.7,9.89,17
568205,28.24,1003.07,0,23.86,-8.75,6.26,1.07,4:00:25,34.214764,-112.944885,1052.6,9.88,17
569206,28.23,1002.79,0,23.87,-9.34,4.92,3.57,4:00:26,34.214725,-112.94487,1052.3,9.63,17
570207,28.22,1002.24,0,23.8,-10.84,8.71,3.95,4:00:27,34.214687,-112.94487,1052,8.94,17
571208,28.21,1002.06,0,23.86,-8.49,5.36,-0.36,4:00:28,34.214653,-112.944855,1051.8,8.05,17
572209,28.21,1001.69,0,23.86,-6.82,4.8,1.75,4:00:29,34.214626,-112.944855,1051.7,6.83,17
573210,28.2,1001.6,0,23.81,-3.7,1.1,2.01,4:00:30,34.214603,-112.944847,1051.4,5.85,17
574211,28.2,1001.33,0,23.84,-9.51,5.04,1.57,4:00:31,34.214581,-112.944832,1051.1,5.4,17
575212,28.19,1001.42,0,23.83,-7.95,4.37,-1.32,4:00:32,34.214565,-112.944817,1050.9,5.35,17
576213,28.19,1001.24,0,23.87,-7.35,5.37,1.01,4:00:33,34.214542,-112.944809,1050.6,5.82,17
577214,28.19,1001.05,0,23.83,-9.06,5.89,1.76,4:00:34,34.214523,-112.944794,1050.6,6.1,17
578215,28.18,1000.96,0,23.86,-8.18,3.63,2.53,4:00:35,34.214497,-112.944794,1050.1,6.41,17
579216,28.18,1000.96,0,23.88,-7.82,4.23,1.86,4:00:36,34.21447,-112.944771,1050.1,6.76,17
580217,28.18,1000.87,0,23.84,-8.85,2.78,3.81,4:00:37,34.214447,-112.944756,1050.1,7.03,17
581218,28.18,1000.68,0,23.88,-8.23,4.43,1.25,4:00:38,34.21442,-112.94474,1050.2,7.24,17
582219,28.18,1000.59,0,23.85,-7.19,4.13,1.81,4:00:39,34.214394,-112.944733,1050.2,7.42,17
583220,28.17,1000.5,0,23.86,-3.5,2.54,0.8,4:00:40,34.214367,-112.944702,1049.9,7.61,17
584221,28.17,1000.41,0,23.87,-7.83,4.58,1.23,4:00:41,34.21434,-112.944695,1049.7,8.05,17
585222,28.17,1000.41,0,23.89,-7.65,5.09,2.52,4:00:42,34.21431,-112.944679,1049.4,7.15,17
586223,28.17,1000.13,0,23.89,-10.13,4.72,2.2,4:00:43,34.214283,-112.944656,1049.8,7.49,17
587224,28.17,1000.04,0,23.86,-8.39,3.06,2.94,4:00:44,34.214256,-112.944641,1049.4,6.95,17
588225,28.15,999.68,0,23.86,-8.6,2.67,2.12,4:00:45,34.21423,-112.944626,1049.1,6.98,17
589226,28.15,999.49,0,23.82,-8.5,4.18,4.64,4:00:46,34.214207,-112.944611,1048.9,6.91,17
590227,28.14,999.31,0,23.92,-5.17,2.31,-0.23,4:00:47,34.214176,-112.944611,1048.6,6.99,17
591228,28.14,999.31,0,23.86,-9.82,5.82,0.85,4:00:48,34.214146,-112.944603,1048.3,7.18,17
592229,28.13,999.22,0,23.84,-6.86,5.82,-0.33,4:00:49,34.214119,-112.944603,1048.2,7.84,17
593230,28.13,998.85,0,23.89,-8.65,7.59,-2.75,4:00:50,34.214085,-112.944603,1048,7.91,17
594231,28.12,998.67,0,23.83,-7.77,4.24,0.75,4:00:51,34.214054,-112.944588,1047.8,8.29,17
595232,28.12,998.57,0,23.86,-7.71,6.22,1,4:00:52,34.21402,-112.944588,1047.6,8.89,17
596233,28.11,998.39,0,23.89,-9.22,4.16,1.56,4:00:53,34.213985,-112.944572,1047.4,9.14,17
597234,28.11,998.21,0,23.86,-10.07,5.7,2.45,4:00:54,34.213947,-112.944572,1047.1,8.69,17
598235,28.1,997.84,0,23.88,-9.61,6.59,2.29,4:00:55,34.213913,-112.944565,1047,8.43,17
599236,28.09,997.47,0,23.89,-9.16,4.83,4.16,4:00:56,34.213886,-112.94455,1046.8,7.71,17
600237,28.08,997.2,0,23.94,-7.49,6.77,1.94,4:00:57,34.213852,-112.94455,1046.5,6.89,17
