time_since_start,bme_temp,bme_alt,uv,ism_temp,acc_x,acc_y,acc_z,gps_time,latitude,longitude,gps_alt,speed,sats
17185,0,405.27,30,27.9,-3.59,6.78,5.84,,,,,,
18185,35.47,406.57,24,27.93,-4.06,7.21,5.99,,,,,,
19186,35.46,405.88,25,27.94,-3.26,7.82,5.66,10:31:50,33.664295,-114.007217,0,0.25,0
20187,35.51,406.4,26,27.96,-3.79,7.21,5.42,10:31:51,33.664299,-114.007217,465.2,0.2,7
21188,35.54,406.48,35,27.98,-2.9,7.22,6.01,10:31:52,33.664299,-114.007217,465.4,0.13,6
22189,35.56,406.4,19,27.94,-3.09,7.04,5.75,10:31:53,33.664307,-114.007217,468.6,0.09,9
23190,35.58,405.97,26,27.97,-2.74,7.47,5.66,10:31:54,33.664314,-114.007217,471.5,0.13,9
24191,35.59,405.79,18,27.99,-2.69,7.55,5.8,10:31:55,33.664322,-114.00721,474.1,0.06,8
25192,35.6,405.45,16,27.96,-2.65,7.47,5.83,,,,,,
26193,35.58,405.36,16,27.99,-2.76,7.46,5.74,,,,,,
27194,35.54,405.27,99,27.97,-2.65,7.48,5.79,,,,,,
28195,35.53,405.01,16,28,-2.58,7.42,6.01,,,,,,
29196,35.53,405.36,16,27.99,-2.63,7.4,6.02,,,,,,
30197,35.58,405.19,15,27.97,-2.41,7.49,6.07,10:32:01,33.664341,-114.007332,476.1,0.3,8
31198,35.62,405.1,15,28.01,-2.51,7.54,6.05,10:32:02,33.664356,-114.007362,467.5,0.45,9
32199,35.62,404.93,18,28,-2.46,7.47,6,10:32:03,33.664352,-114.007362,462.1,0.48,8
33200,35.59,404.75,15,28.03,-2.43,7.29,5.84,10:32:04,33.66436,-114.007362,459.5,0.4,8
34201,35.57,408.82,18,27.96,-2.34,7.19,6.07,10:32:05,33.664364,-114.00737,456.7,0.4,8
35202,35.57,411.85,18,28.04,-2.43,7.32,5.95,10:32:06,33.664364,-114.007385,454.1,0.44,9
36203,35.46,414.19,18,28.02,-2.65,7.2,6.09,10:32:07,33.664364,-114.007385,450,0.4,9
37204,35.34,415.93,19,28.05,-2.3,7.33,6.24,10:32:08,33.66436,-114.007401,448.3,0.33,9
38205,35.24,417.23,16,28.06,-2.68,7.17,6.18,10:32:09,33.664356,-114.007408,443.7,0.49,9
39206,35.13,418.35,18,28.02,-2.59,7.25,6.28,10:32:10,33.664379,-114.007401,450.1,0.53,13
40207,35.01,419.05,18,28.05,-2.71,7.12,6.45,10:32:11,33.664398,-114.007401,454.7,0.44,13
41208,34.94,419.65,18,28.03,-2.73,7.18,6.17,10:32:12,33.664402,-114.007385,455.8,0.4,13
42209,34.9,420.09,18,28.05,-2.99,7.16,6.41,10:32:13,33.664402,-114.007385,455.6,0.35,13
43210,34.87,416.45,23,28.04,-2.7,7.09,6.22,10:32:14,33.664406,-114.007385,457.3,0.52,13
44211,34.86,415.93,30,28,-3.13,7.12,5.41,10:32:15,33.664406,-114.007385,457.9,0.39,13
45212,34.9,415.41,70,28.07,-4.71,7.31,3.6,10:32:16,33.664406,-114.007385,457.7,0.31,13
46213,34.95,416.79,26,28.02,-5.46,7.94,2.56,10:32:17,33.664406,-114.007385,457.9,0.32,13
47214,34.95,417.92,25,28.04,-5.65,5.87,-0.14,10:32:18,33.664402,-114.007385,457.1,0.33,13
48215,34.92,418.7,24,28.03,-6.18,7.45,0.89,10:32:19,33.664402,-114.007385,456.3,0.37,13
49216,34.88,419.31,25,28.07,-6.36,7.22,0.51,10:32:20,33.664398,-114.007385,456.1,0.3,13
50217,34.82,419.83,21,28.05,-7.54,6.54,1.01,10:32:21,33.664394,-114.007385,455,0.39,13
51218,34.77,420.26,19,28.07,-7.3,6.16,1.07,10:32:22,33.664391,-114.007385,454.5,0.36,13
52219,34.72,420.52,19,28.07,-7.42,6.4,0.45,10:32:23,33.664387,-114.007385,453.6,0.38,13
53220,34.64,420.78,21,28.02,-7.21,6.03,0.25,10:32:24,33.664387,-114.007385,452.9,0.38,13
54221,34.52,421.04,20,28.06,-7.28,5.9,-0.38,10:32:25,33.664429,-114.007401,457.6,0.52,13
55222,34.39,421.13,23,28.02,-8.16,6.26,0.22,10:32:26,33.664455,-114.007408,460.2,0.4,13
56223,34.27,421.21,20,28.06,-8.57,5.57,-0.1,10:32:27,33.664482,-114.007408,462.8,0.49,13
57224,34.15,421.39,21,28.06,-7.52,5.92,0.25,10:32:28,33.664497,-114.007423,464.5,0.45,13
58225,34.03,421.39,21,28,-7.79,6.02,0.02,10:32:29,33.664509,-114.007423,465.7,0.41,13
59226,33.92,421.3,20,28.03,-7.67,5.79,-0.08,10:32:30,33.664513,-114.007423,466.3,0.21,13
60227,33.8,421.21,19,28.05,-7.67,5.92,0.75,10:32:31,33.664516,-114.007423,466.7,0.09,13
61228,33.7,421.21,21,28.05,-8.09,5.78,0.56,10:32:32,33.66452,-114.007423,466.9,0.08,13
62229,33.6,421.21,21,28.08,-7.67,6.08,0.85,10:32:33,33.66452,-114.007423,467,0.1,13
63230,33.49,421.3,25,28.06,-7.83,6.24,0.35,10:32:34,33.664524,-114.007423,467.2,0.18,13
64231,33.42,421.39,25,28.07,-7.59,5.76,0.51,10:32:35,33.664528,-114.007423,467.3,0.26,13
65232,33.34,421.47,25,28.06,-7.79,5.5,0.63,10:32:36,33.664532,-114.007423,467.5,0.16,13
66233,33.27,421.47,19,28.07,-7.69,5.89,0.41,10:32:37,33.664536,-114.007423,467.7,0.15,13
67234,33.19,421.39,19,28.09,-8.11,6.13,0.01,10:32:38,33.664539,-114.007423,467.9,0.03,13
68235,33.13,421.39,16,28.06,-8.13,5.99,0.94,10:32:39,33.664539,-114.007423,468,0.05,13
69236,33.06,421.39,19,28.08,-8.3,5.17,1.15,10:32:40,33.664547,-114.007423,469.2,0.08,14
70237,32.99,421.3,19,28.05,-8.35,5.07,1.53,10:32:41,33.664555,-114.007423,470.1,0.13,14
71238,32.91,421.13,34,28.06,-8.34,5.02,1.74,10:32:42,33.664562,-114.007423,470.7,0.12,14
72239,32.82,420.95,140,28.07,-7.81,5.36,3,10:32:43,33.66457,-114.007423,471.8,0.06,14
73240,32.71,420.87,35,28.05,-7.64,5.03,2.7,10:32:44,33.664577,-114.007423,472.6,0.08,14
74241,32.63,418.09,167,28.04,-8.02,4.94,3.26,10:32:45,33.664589,-114.007423,472.7,0.05,14
75242,32.57,397.4,181,28.08,-6.92,4.19,4.05,10:32:46,33.664597,-114.007439,473.1,0.41,14
76243,32.82,381.49,94,28.09,-8.09,6.11,3.91,10:32:47,33.6646,-114.007439,473.2,1.24,14
77244,33.14,387.45,171,28.07,-7.79,5.33,3.38,10:32:48,33.6646,-114.007439,473.6,1.6,14
78245,33.07,395.24,141,28.05,-7.66,5.93,2.62,10:32:49,33.664604,-114.007439,474.7,1.23,14
79246,33,401.46,31,28.08,-6.52,5.32,5.24,10:32:50,33.664604,-114.007439,475,0.77,14
80247,32.89,406.14,16,28.07,-8.11,4.03,3.83,10:32:51,33.664608,-114.007439,475.1,0.86,14
81248,32.77,409.69,18,28.05,-8.58,3.46,3.24,10:32:52,33.664608,-114.007439,475.3,0.37,14
82249,32.64,412.29,11,28.09,-7.81,4.44,3.07,10:32:53,33.664612,-114.007439,475.5,0.3,14
83250,32.52,414.37,14,28.07,-8.68,4.24,2,10:32:54,33.664612,-114.007439,475.6,0.14,14
84251,32.42,415.84,13,28.04,-8.39,4.55,1.75,10:32:55,33.664612,-114.007423,475.4,0.12,14
85252,32.34,417.05,13,28.09,-8.93,3.85,1.62,10:32:56,33.664612,-114.007423,475.5,0.1,14
86253,32.28,417.92,19,28.07,-9.45,2.39,2.08,10:32:57,33.664612,-114.007423,475.4,0.14,14
87254,32.21,418.61,15,28.07,-9.32,2.47,2.14,10:32:58,33.664612,-114.007423,475.4,0.07,14
88255,32.14,419.05,18,28.09,-9.35,2.46,2.04,10:32:59,33.664612,-114.007423,475.4,0.02,14
89256,32.07,419.39,16,28.09,-9.07,2.35,2.13,10:33:00,33.664612,-114.007423,475.5,0.03,14
90257,32,419.65,0,28.09,-9.31,2.67,2.22,10:33:01,33.664612,-114.007423,475.5,0.02,14
91258,31.95,419.83,14,28.08,-9.4,2.6,2.02,10:33:02,33.664612,-114.007423,475.5,0.08,14
92259,31.9,420.09,16,28.11,-9.31,2.59,2.01,10:33:03,33.664612,-114.007423,475.5,0.06,14
93260,31.84,420.17,13,28.09,-9.49,2.18,2.05,10:33:04,33.664612,-114.007423,475.5,0.1,14
94261,31.8,420.17,16,28.07,-9.53,2.33,2.09,10:33:05,33.664612,-114.007423,475.5,0.14,14
95262,31.77,420,25,28.06,-9.31,2.4,2.08,10:33:06,33.664612,-114.007423,475.5,0.13,14
96263,31.74,420,0,28.09,-9.26,2.54,2.22,10:33:07,33.664616,-114.007423,475.5,0.08,13
97264,31.72,420,39,28.11,-7.59,4.31,3.3,10:33:08,33.664616,-114.007423,475.5,0.1,14
98265,31.68,419.74,42,28.07,-7.83,4.68,3.7,10:33:09,33.664616,-114.007423,475.5,0.12,13
99266,31.63,419.74,42,28.07,-7.51,5.6,3.08,10:33:10,33.664616,-114.007423,475.5,0.01,15
100267,31.56,420,42,28.08,-7.65,5.53,3.23,10:33:11,33.664616,-114.007423,475.5,0.09,15
101268,31.49,420.17,43,28.1,-7.38,5.68,3.26,10:33:12,33.664616,-114.007423,475.5,0.03,15
102269,31.43,420.17,42,28.05,-7.06,5.9,3.33,10:33:13,33.664616,-114.007423,475.4,0.06,15
103270,31.36,420.26,40,28.05,-6.44,6.41,3.61,10:33:14,33.664616,-114.007423,475.4,0.07,15
104271,31.29,420.26,39,28.09,-7.28,6.02,2.77,10:33:15,33.664616,-114.007423,475.4,0.1,15
105272,31.24,420.35,38,28.11,-7.3,6.01,2.29,10:33:16,33.664616,-114.007423,475.4,0.08,15
106273,31.2,420.35,38,28.09,-7.26,6.16,2.72,10:33:17,33.664616,-114.007439,475.4,0.32,15
107274,31.16,420.43,36,28.09,-7.66,5.36,3.02,10:33:18,33.664616,-114.007439,475.4,0.15,15
108275,31.14,420.43,38,28.09,-7.42,5.7,2.36,10:33:19,33.664616,-114.007439,475.4,0.05,15
109276,31.09,420.43,38,28.1,-7.3,6.03,2.44,10:33:20,33.664616,-114.007439,475.3,0.68,15
110277,31.04,420.35,38,28.05,-7.47,5.91,2.2,10:33:21,33.664616,-114.007439,475.6,0.64,15
111278,30.99,420.43,39,28.09,-7.5,5.62,2.65,10:33:22,33.664619,-114.007439,475.9,0.17,15
112279,30.93,420.43,34,28.07,-7.34,6.07,2.11,10:33:23,33.664619,-114.007439,475.9,0.02,15
113280,30.88,420.43,36,28.08,-7.26,6.05,2.1,10:33:24,33.664619,-114.007439,475.9,0.16,15
114281,30.81,420.35,36,28.1,-7.14,6.42,2.02,10:33:25,33.664619,-114.007439,475.9,0.13,15
115282,30.75,420.35,38,28.06,-7.14,6.3,1.94,10:33:26,33.664619,-114.007439,475.9,0.09,15
116283,30.71,420.35,38,28.09,-7.16,6.39,2.03,10:33:27,33.664619,-114.007439,475.9,0.08,15
117284,30.67,420.26,36,28.07,-7.43,5.97,1.24,10:33:28,33.664619,-114.007439,475.9,0.14,15
118285,30.63,420.26,44,28.09,-7.59,6.05,3.68,10:33:29,33.664619,-114.007439,475.9,0.01,15
119286,30.59,420.26,36,28.07,-9.38,3.63,1.12,10:33:30,33.664619,-114.007439,475.9,0.1,15
120287,30.55,420.26,38,28.09,-9.26,2.51,1.45,10:33:31,33.664619,-114.007439,475.9,0.24,15
121288,30.47,420.17,39,28.11,-9.38,2.43,1.52,10:33:32,33.664619,-114.007439,475.9,0.02,15
122289,30.4,420.17,39,28.12,-9.38,2.35,1.58,10:33:33,33.664619,-114.007439,475.9,0.06,15
123290,30.33,420.17,40,28.08,-9.45,2.2,1.69,10:33:34,33.664619,-114.007439,475.9,0.07,15
124291,30.26,420,40,28.09,-9.41,2.19,1.64,10:33:35,33.664619,-114.007439,475.9,0.15,15
125292,30.2,419.91,40,28.06,-9.43,2.09,1.61,10:33:36,33.664619,-114.007439,475.9,0.07,15
126293,30.15,419.91,40,28.09,-9.44,1.97,1.85,10:33:37,33.664619,-114.007439,475.9,0.03,15
127294,30.1,420,42,28.06,-9.68,0.47,2.36,10:33:38,33.664619,-114.007439,475.9,0.1,15
128295,30.03,420,42,28.12,-9.61,0.48,2.41,10:33:39,33.664619,-114.007439,475.9,0.15,15
129296,29.96,420,42,28.09,-9.72,0.54,2.43,10:33:40,33.664619,-114.007439,475.9,0.13,16
130297,29.89,420,44,28.11,-9.67,-0.24,2.25,10:33:41,33.664619,-114.007423,475.9,0.07,16
131298,29.84,419.74,43,28.08,-9.53,0.5,2.77,10:33:42,33.664619,-114.007423,475.9,0.15,16
132299,29.8,419.83,43,28.09,-9.42,0.37,2.63,10:33:43,33.664619,-114.007423,475.9,0.02,16
133300,29.76,419.91,42,28.09,-9.45,0.26,2.86,10:33:44,33.664619,-114.007423,475.9,0.01,16
134301,29.72,420,42,28.07,-9.52,0.15,2.84,10:33:45,33.664619,-114.007423,475.9,0.03,16
135302,29.66,419.91,43,28.08,-9.27,0.58,2.86,10:33:46,33.664619,-114.007423,475.9,0.01,16
136303,29.61,419.83,42,28.09,-9.45,0.21,2.92,10:33:47,33.664619,-114.007423,475.9,0,16
137304,29.56,419.91,40,28.08,-9.49,-0.52,2.42,10:33:48,33.664619,-114.007423,475.9,0,16
138305,29.53,419.83,42,28.08,-9.67,-0.2,2.34,10:33:49,33.664619,-114.007423,475.9,0.02,16
139306,29.48,419.83,42,28.1,-9.53,-0.17,2.28,10:33:50,33.664619,-114.007423,475.9,0,16
140307,29.42,419.83,73,28.07,-9.68,0.1,2.13,10:33:51,33.664619,-114.007423,475.8,0.03,16
141308,29.35,419.74,126,28.1,-10.09,1.27,1.66,10:33:52,33.664619,-114.007423,475.8,0.01,16
142309,29.3,419.91,30,28.08,-9.15,3.75,1.49,10:33:53,33.664619,-114.007423,475.8,0.01,16
143310,29.24,419.83,25,28.07,-6.36,6.79,-1.57,10:33:54,33.664619,-114.007423,475.8,0.02,16
144311,29.19,419.65,24,28.09,-4.14,6.63,-4.51,10:33:55,33.664619,-114.007423,475.8,0.01,16
145312,29.12,419.91,25,28.12,-5.24,5.46,-5.1,10:33:56,33.664619,-114.007423,475.8,0.12,16
146313,29.07,420,23,28.09,-6.29,4.98,-5.15,10:33:57,33.664619,-114.007423,475.8,0.05,16
147314,29.01,423.99,23,28.11,-7.87,6.07,1.35,10:33:58,33.664619,-114.007423,475.8,0.35,16
148315,28.97,421.21,87,28.1,-7.72,5.24,-0.54,10:33:59,33.664619,-114.007423,475.9,0.32,16
149316,28.96,421.21,18,28.08,-8.81,4.72,-0.87,10:34:00,33.664619,-114.007423,475.9,0.26,16
150317,28.92,419.65,14,28.12,-8.26,4.95,-0.88,10:34:01,33.664619,-114.007423,476,0.14,16
151318,28.85,412.81,14,28.1,-8.54,4.93,-0.76,10:34:02,33.664619,-114.007423,476,0.18,16
152319,28.8,414.63,15,28.05,-8.68,4.78,-0.43,10:34:03,33.664619,-114.007423,476,0.13,16
153320,28.76,416.19,16,28.09,-8.27,4.85,-0.46,10:34:04,33.664619,-114.007423,476,0.06,16
154321,28.71,417.31,14,28.09,-8.89,4.38,-0.51,10:34:05,33.664619,-114.007423,476,0.06,16
155322,28.66,418.18,14,28.08,-8.14,4.44,-0.98,10:34:06,33.664619,-114.007423,476,0.28,16
156323,28.62,418.79,15,28.07,-8.59,5.09,-0.24,10:34:07,33.664619,-114.007423,476,0.15,16
157324,28.58,419.13,15,28.09,-8.46,4.97,-0.62,10:34:08,33.664619,-114.007423,476,0.12,16
158325,28.54,419.57,14,28.09,-8.3,4.78,-0.93,10:34:09,33.664619,-114.007423,476,0.06,15
159326,28.49,419.83,14,28.09,-8.26,4.56,-1.24,10:34:10,33.664619,-114.007423,476,0.33,15
160327,28.44,420.09,14,28.08,-8.16,4.85,-1.02,10:34:11,33.664619,-114.007423,476,0.07,16
161328,28.4,420.26,23,28.07,-8.41,4.48,-1.36,10:34:12,33.664619,-114.007423,476,0.05,16
162329,28.35,420.35,42,28.07,-8.7,4.88,-0.76,10:34:13,33.664619,-114.007423,476,0.03,16
163330,28.31,420.43,14,28.07,-7.6,5.24,-0.8,10:34:14,33.664619,-114.007423,476,0.35,16
164331,28.27,417.14,15,28.08,-7.69,5.99,-0.45,10:34:15,33.664619,-114.007423,476,0.16,16
165332,28.22,418.01,18,28.09,-7.1,5.47,-1.06,10:34:16,33.664619,-114.007423,476,0.47,16
166333,28.19,418.7,16,28.08,-6.79,6.38,-1.56,10:34:17,33.664619,-114.007439,476,0.08,16
167334,28.14,418.96,18,28.07,-7.6,5.6,-1.75,10:34:18,33.664619,-114.007439,476,0.08,16
168335,28.07,419.22,121,28.08,-9.82,3.4,0.58,10:34:19,33.664619,-114.007439,476,0.13,16
169336,28,419.31,86,28.08,-8.87,4.52,0.12,10:34:20,33.664619,-114.007439,475.9,0.14,16
170337,27.94,403.8,148,28.07,-12.79,-4.19,5.14,10:34:21,33.664619,-114.007439,475.9,0.1,16
171338,27.91,407.87,36,28.07,-6.36,5.47,0.77,10:34:22,33.664619,-114.007439,475.9,0.55,16
172339,27.91,410.9,34,28.08,-8.26,4.4,0.66,10:34:23,33.664619,-114.007439,475.7,0.36,16
173340,27.88,412.81,29,28.08,-8.94,4.68,1.11,10:34:24,33.664619,-114.007439,475.7,0.23,16
174341,27.83,414.37,30,28.08,-8.57,4.32,0.74,10:34:25,33.664619,-114.007439,475.8,0.26,16
175342,27.77,415.67,31,28.09,-8.57,4.49,1,10:34:26,33.664619,-114.007439,475.8,0.18,16
176343,27.71,416.62,34,28.09,-8.42,4.54,1.18,10:34:27,33.664619,-114.007423,475.8,0.14,16
177344,27.67,417.31,29,28.11,-8.58,4.33,1.08,10:34:28,33.664619,-114.007423,476,0.14,16
178345,27.62,418.01,30,28.09,-8.61,4.27,1.18,10:34:29,33.664619,-114.007423,476,0.09,16
179346,27.58,418.44,26,28.08,-8.94,4.26,1.06,10:34:30,33.664619,-114.007423,476.1,0.08,16
180347,27.53,418.53,21,28.09,-8.89,4.33,0.95,10:34:31,33.664619,-114.007423,476.1,0.14,16
181348,27.48,418.79,53,28.08,-8.77,4.18,0.99,10:34:32,33.664623,-114.007423,476.2,0.1,16
182349,27.41,418.7,62,28.11,-8.91,3.6,2.28,10:34:33,33.664623,-114.007423,476.2,0.13,16
183350,27.35,418.79,55,28.09,-9.1,3.58,1.17,10:34:34,33.664623,-114.007423,476.3,0.26,16
184351,27.29,419.05,26,28.09,-9.59,3.43,0.87,10:34:35,33.664623,-114.007423,476.2,0.13,15
185352,27.23,419.13,19,28.08,-9.37,3.76,1.06,10:34:36,33.664623,-114.007423,476.3,0.15,16
186353,27.16,419.13,19,28.13,-8.82,4.06,0.83,10:34:37,33.664623,-114.007423,476.3,0.16,16
187354,27.11,419.31,42,28.1,-9.01,3.88,0.76,10:34:38,33.664623,-114.007423,476.3,0.08,16
188355,27.06,419.48,20,28.12,-8.9,3.91,0.64,10:34:39,33.664623,-114.007423,476.2,0.18,14
189356,27.03,419.57,18,28.1,-9.04,4.04,0.25,10:34:40,33.664623,-114.007423,476.2,0.05,17
190357,27,419.65,30,28.12,-9.06,3.8,0.14,10:34:41,33.664623,-114.007423,476.2,0.23,17
191358,26.98,419.74,0,28.11,-8.61,3.56,-0.22,10:34:42,33.664623,-114.007423,476.2,0.12,17
192359,26.96,419.74,26,28.09,-8.99,3.84,0.53,10:34:43,33.664623,-114.007423,476.2,0.18,17
193360,26.94,419.91,0,28.08,-9.17,3.9,-0.17,10:34:44,33.664623,-114.007423,476.2,0.15,17
194361,26.93,419.91,0,28.07,-9.28,3.66,-0.52,10:34:45,33.664623,-114.007423,476.2,0.1,17
195362,26.92,419.91,0,28.09,-9.19,3.53,0.56,10:34:46,33.664623,-114.007423,476.2,0.54,17
196363,26.91,419.91,33,28.08,-9.21,3.35,0.02,10:34:47,33.664623,-114.007439,476.2,0.22,17
197364,26.9,420.09,34,28.11,-9.21,3.32,-0.17,10:34:48,33.664623,-114.007439,476.2,0.12,17
198365,26.88,420,3,28.09,-9.16,3.41,-0.06,10:34:49,33.664623,-114.007439,476.3,0.12,17
199366,26.84,420,29,28.1,-9.24,3.09,-0.27,10:34:50,33.664623,-114.007439,476.3,0.1,17
200367,26.79,419.91,30,28.08,-9.16,3.2,-0.08,10:34:51,33.664623,-114.007423,476.3,0.1,17
201368,26.75,419.83,50,28.1,-9.29,3.13,-0.07,10:34:52,33.664623,-114.007423,476.3,0.18,17
202369,26.7,419.91,0,28.11,-9.19,3.39,0.02,10:34:53,33.664627,-114.007423,476.3,0.36,17
203370,26.65,419.83,34,28.09,-9.12,3.14,-0.22,10:34:54,33.664627,-114.007423,476.3,0.24,17
204371,26.59,419.83,0,28.09,-8.96,3.13,-0.52,10:34:55,33.664627,-114.007423,476.4,0.21,17
205372,26.52,419.74,0,28.09,-9.05,3.84,-1.33,10:34:56,33.664623,-114.007423,476.4,0.18,17
206373,26.48,419.74,50,28.1,-9.13,3.46,-1.06,10:34:57,33.664623,-114.007423,476.4,0.31,17
207374,26.42,419.91,140,28.09,-8.97,3.64,-1,10:34:58,33.664623,-114.007423,476.4,0.12,17
208375,26.36,419.91,0,28.12,-9.15,2.94,-0.95,10:34:59,33.664623,-114.007423,476.4,0.06,17
209376,26.31,420,0,28.09,-9.1,3.27,-1.19,10:35:00,33.664623,-114.007423,476.5,0.53,17
210377,26.26,420.09,55,28.1,-9.24,3.24,-1.01,10:35:01,33.664627,-114.007423,476.4,0.2,17
211378,26.23,419.91,119,28.13,-9.38,2.89,-0.26,10:35:02,33.664627,-114.007423,476.6,0.08,17
212379,26.19,419.91,148,28.12,-9.12,2.97,-0.06,10:35:03,33.664627,-114.007423,476.9,0.1,17
213380,26.14,419.65,122,28.12,-9.33,3.12,0.47,10:35:04,33.664627,-114.007423,477,0.33,17
214381,26.09,419.57,206,28.08,-9.56,2.46,-0.08,10:35:05,33.664627,-114.007423,476.9,0.29,17
215382,26.04,419.48,21,28.09,-9.34,2.77,-0.36,10:35:06,33.664627,-114.007423,476.9,0.28,17
216383,26,419.48,29,28.09,-9.08,3.55,0.5,10:35:07,33.664623,-114.007423,477.2,0.26,17
217384,25.95,419.39,39,28.1,-9.17,3.52,0.1,10:35:08,33.664623,-114.007423,477.1,0.4,17
218385,25.9,419.39,23,28.13,-8.86,3.54,-0.5,10:35:09,33.664627,-114.007423,477.2,0.18,17
219386,25.86,419.57,24,28.12,-8.91,3.7,-0.17,10:35:10,33.664623,-114.007423,477.2,0.12,17
220387,25.83,419.65,78,28.1,-9.04,3.93,-0.67,10:35:11,33.664623,-114.007423,477.2,0.15,17
221388,25.79,419.74,23,28.11,-8.87,3.38,-0.3,10:35:12,33.664623,-114.007423,477.1,0.37,17
222389,25.77,419.83,36,28.11,-8.98,3.71,-1.01,10:35:13,33.664623,-114.007423,477.3,0.41,17
223390,25.74,419.91,16,28.09,-9.06,3.28,-0.48,10:35:14,33.664623,-114.007423,477.5,0.1,17
224391,25.7,419.91,24,28.09,-9.13,3.27,-0.82,10:35:15,33.664623,-114.007423,477.7,0.22,17
225392,25.66,419.83,26,28.12,-9.02,3.35,-0.62,10:35:16,33.664623,-114.007423,477.6,0.39,17
226393,25.62,419.83,0,28.12,-9.43,3.01,-0.8,10:35:17,33.664627,-114.007423,477.7,0.54,17
227394,25.58,419.83,25,28.12,-9.1,3.22,-0.54,10:35:18,33.664623,-114.007423,477.8,0.09,17
228395,25.55,419.83,140,28.1,-9.43,3.01,-0.41,10:35:19,33.664623,-114.007423,477.9,0.09,17
229396,25.53,419.91,102,28.12,-9.55,2.53,0.07,10:35:20,33.664623,-114.007423,478.1,0.61,17
230397,25.5,419.83,29,28.09,-9.49,2.85,0.04,10:35:21,33.664623,-114.007423,478.1,0.3,17
231398,25.48,419.83,30,28.11,-9.08,2.92,-0.26,10:35:22,33.664623,-114.007423,477.9,0.22,17
232399,25.46,419.74,26,28.11,-9.47,2.93,-0.21,10:35:23,33.664623,-114.007423,477.8,0.77,17
233400,25.43,419.65,20,28.12,-9.44,2.8,-0.33,10:35:24,33.664623,-114.007423,477.9,0.46,17
234401,25.4,419.57,21,28.14,-9.36,2.9,-0.39,10:35:25,33.664627,-114.007423,478.1,0.45,17
235402,25.35,419.48,28,28.11,-9.1,2.83,-1.36,10:35:26,33.664627,-114.007423,477.8,0.45,17
236403,25.31,419.48,9,28.15,-7.97,0.92,0.72,10:35:27,33.664627,-114.007423,477.9,0.44,17
237404,25.26,419.48,40,28.12,-9.84,3.09,0.84,10:35:28,33.664631,-114.007423,477.9,0.41,17
238405,25.21,419.48,40,28.09,-9.3,2.92,0.42,10:35:29,33.664635,-114.007423,478.1,0.47,17
239406,25.16,419.48,102,28.13,-12.1,3.66,4.91,10:35:30,33.664639,-114.007423,478.2,0.46,17
240407,25.12,419.31,9,28.12,-10.13,1.23,1.37,10:35:31,33.664639,-114.007423,478.4,0.45,17
241408,25.1,419.13,0,28.1,-10.24,0.71,1.91,10:35:32,33.664639,-114.007423,478.4,0.44,17
242409,25.09,419.22,0,28.12,-9.23,-1.3,0,10:35:33,33.664642,-114.007423,478.4,0.41,17
243410,25.08,419.48,24,28.12,-9.95,-1.26,1.37,10:35:34,33.664642,-114.007423,478.4,0.38,17
244411,25.07,419.65,16,28.11,-9.83,-3.59,2.76,10:35:35,33.664646,-114.007423,478.5,0.35,17
245412,25.06,419.83,15,28.12,-9.66,-1.83,1.2,10:35:36,33.66465,-114.007423,478.5,0.35,16
246413,25.04,419.91,15,28.12,-9.68,-1.67,1.06,10:35:37,33.66465,-114.007423,478.5,0.33,17
247414,25.02,420.09,20,28.14,-9.67,-1.91,1.69,10:35:38,33.664654,-114.007423,478.6,0.33,17
248415,25,420,16,28.13,-9.61,-2.37,-1.01,10:35:39,33.664654,-114.007423,478.6,0.31,17
249416,24.96,419.83,24,28.12,-9.14,-3.14,-1.38,10:35:40,33.664658,-114.007423,478.6,0.3,17
250417,24.93,419.83,24,28.1,-8.82,-3.63,-2.17,10:35:41,33.664658,-114.007423,478.7,0.29,17
251418,24.9,419.74,24,28.12,-8.89,-3.9,-2.03,10:35:42,33.664658,-114.007408,478.8,0.3,17
252419,24.88,419.74,25,28.12,-9.01,-4.1,-1.44,10:35:43,33.664658,-114.007423,478.9,0.3,17
253420,24.86,419.74,25,28.17,-8.96,-4,-1.54,10:35:44,33.664661,-114.007423,479,0.31,17
254421,24.84,419.74,26,28.09,-8.97,-3.8,-1.22,10:35:45,33.664661,-114.007423,479.2,0.31,17
255422,24.81,419.65,25,28.09,-8.98,-3.64,-1.47,10:35:46,33.664661,-114.007423,479.4,0.29,17
256423,24.8,419.65,25,28.1,-8.6,-3.14,-1.5,10:35:47,33.664661,-114.007423,479.6,0.23,17
257424,24.78,419.74,28,28.12,-9.06,-3.32,-1.2,10:35:48,33.664661,-114.007423,479.7,0.17,17
258425,24.76,419.83,29,28.09,-8.54,-1.87,-0.85,10:35:49,33.664661,-114.007423,479.9,0.12,17
259426,24.73,419.83,29,28.1,-8.57,-4.37,-1.12,10:35:50,33.664661,-114.007423,480.2,0.08,17
260427,24.71,419.83,29,28.1,-8.57,-4.59,-1.3,10:35:51,33.664661,-114.007423,480.4,0.06,17
261428,24.69,419.83,29,28.08,-8.51,-4.67,-1.26,10:35:52,33.664661,-114.007423,480.6,0.06,17
262429,24.68,419.91,28,28.12,-8.72,-4.74,-1.07,10:35:53,33.664661,-114.007423,480.8,0.06,17
263430,24.65,419.91,25,28.11,-8.51,-4.57,-1.13,10:35:54,33.664661,-114.007439,481,0.07,17
264431,24.63,419.91,26,28.09,-8.72,-4.75,-0.96,10:35:55,33.664658,-114.007439,481.2,0.08,17
265432,24.62,419.83,21,28.12,-8.81,-3.87,-1.69,10:35:56,33.664658,-114.007439,481.4,0.07,17
266433,24.6,419.83,21,28.11,-8.92,-3.91,-1.71,10:35:57,33.664658,-114.007439,481.5,0.07,17
267434,24.59,419.83,23,28.11,-8.89,-4.04,-2.04,10:35:58,33.664658,-114.007439,481.6,0.06,17
268435,24.58,419.83,20,28.09,-8.89,-3.68,-1.15,10:35:59,33.664658,-114.007439,481.9,0.06,17
269436,24.56,419.83,19,28.13,-8.79,-3.38,-1.78,10:36:00,33.664661,-114.007439,482.1,0.05,17
270437,24.53,419.83,18,28.11,-9.42,-3.82,-2.65,10:36:01,33.664658,-114.007439,482.4,0.03,17
271438,24.51,419.83,15,28.12,-9.15,-2.7,-2.13,10:36:02,33.664658,-114.007439,482.5,0.03,17
272439,24.5,419.83,18,28.12,-9.6,-3.07,-1.99,10:36:03,33.664658,-114.007439,482.6,0.02,17
273440,24.48,419.83,16,28.11,-9.27,-3.07,-2.11,10:36:04,33.664658,-114.007439,482.8,0.02,17
274441,24.47,419.74,16,28.11,-9.18,-2.88,-2.53,10:36:05,33.664658,-114.007446,483,0.01,17
275442,24.46,419.74,21,28.09,-8.94,-2.87,-2.63,10:36:06,33.664658,-114.007446,483.1,0.02,17
276443,24.45,419.74,23,28.07,-8.69,-2.66,-2.7,10:36:07,33.664658,-114.007446,483.1,0.01,17
277444,24.45,419.74,24,28.12,-9.13,-2.54,-2.69,10:36:08,33.664658,-114.007446,483.2,0.03,17
278445,24.44,419.74,26,28.09,-9.17,-2.34,-2.57,10:36:09,33.664658,-114.007446,483.3,0.17,17
279446,24.43,419.74,24,28.09,-9.24,-1.3,-2.56,10:36:10,33.664658,-114.007446,483.3,0.09,17
280447,24.43,419.74,25,28.1,-9.35,-1.64,-2.14,10:36:11,33.664658,-114.007446,483.3,0.05,17
281448,24.42,419.74,26,28.11,-9.51,-1.45,-2.28,10:36:12,33.664658,-114.007446,483.3,0.08,17
282449,24.42,419.74,28,28.12,-9.82,-1.63,-1.73,10:36:13,33.664658,-114.007446,483.3,0.07,17
283450,24.41,419.65,26,28.08,-8.85,-1.79,-2.64,10:36:14,33.664658,-114.007446,483.3,0.01,17
284451,24.41,419.65,24,28.07,-9.08,-1.41,-2.51,10:36:15,33.664658,-114.007446,483.4,0.02,17
285452,24.38,419.57,23,28.13,-9.07,-1.89,-2.78,10:36:16,33.664658,-114.007446,483.4,0.18,17
286453,24.35,419.48,25,28.11,-9.08,-2.1,-2.8,10:36:17,33.664658,-114.007446,483.5,0.21,17
287454,24.33,419.48,24,28.09,-9.2,-1.83,-2.7,10:36:18,33.664658,-114.007446,483.4,0.1,17
288455,24.31,419.48,24,28.09,-9.13,-1.51,-2.38,10:36:19,33.664658,-114.007446,483.4,0.1,17
289456,24.28,419.57,24,28.09,-9.19,-1.56,-2.67,10:36:20,33.664658,-114.007446,483.4,0.08,17
290457,24.25,419.48,24,28.08,-9.09,-1.7,-2.86,10:36:21,33.664658,-114.007446,483.4,0.09,17
291458,24.24,419.39,24,28.1,-8.69,-1.86,-2.76,10:36:22,33.664658,-114.007446,483.4,0.09,17
292459,24.22,419.31,23,28.12,-9.26,-1.88,-3.1,10:36:23,33.664658,-114.007446,483.3,0.08,17
293460,24.2,419.31,24,28.09,-9.15,-1.93,-2.9,10:36:24,33.664658,-114.007446,483.3,0.06,17
294461,24.17,419.22,25,28.12,-8.65,-1.86,-3.1,10:36:25,33.664658,-114.007446,483.3,0.06,17
295462,24.15,419.22,21,28.12,-8.82,-2.38,-2.97,10:36:26,33.664658,-114.007446,483.3,0.03,17
296463,24.12,419.31,23,28.12,-9.21,-2.02,-3.25,10:36:27,33.664658,-114.007446,483.3,0.02,16
297464,24.09,419.31,21,28.12,-9.21,-1.92,-3.42,10:36:28,33.664658,-114.007446,483.3,0.02,17
298465,24.07,419.31,24,28.1,-8.78,-1.73,-3.78,10:36:29,33.664658,-114.007446,483.3,0.12,17
299466,24.05,419.31,25,28.12,-8.83,-2.37,-3.77,10:36:30,33.664658,-114.007439,483.3,0.12,17
300467,24.04,419.31,24,28.11,-8.8,-1.67,-3.53,10:36:31,33.664658,-114.007439,483.3,0.1,17
time_since_start,bme_temp,bme_alt,uv,ism_temp,acc_x,acc_y,acc_z,gps_time,latitude,longitude,gps_alt,speed,sats
time_since_start,bme_temp,bme_alt,uv,ism_temp,acc_x,acc_y,acc_z,gps_time,latitude,longitude,gps_alt,speed,sats
16663,0,1061.7,11,22.66,-0.56,0.2,-9.05,,,,,,
17663,31.24,1061.24,9,22.7,-1.21,-1.03,-8.77,3:45:14,34.219322,-112.948708,1116,0.35,15
18664,30.81,1060.96,13,22.71,-1.78,-1.09,-6.64,3:45:25,34.219269,-112.948662,1116,0.99,15
19665,30.51,1060.68,13,22.71,3.1,-2.14,-8.81,3:45:26,34.219261,-112.948647,1116.4,2.73,15
20666,30.3,1060.59,11,22.72,-0.69,-2.64,-8.63,3:45:27,34.21925,-112.948631,1116.3,2.73,15
21667,30.12,1060.5,3,22.7,0.61,-1.48,-8.75,3:45:28,34.219246,-112.948624,1116.3,3.22,15
22668,29.98,1060.5,13,22.72,0.55,-0.96,-10.35,3:45:29,34.219234,-112.948624,1116.3,1.9,15
23669,29.86,1060.59,5,22.7,0.11,1.23,-9.34,3:45:30,34.219231,-112.948624,1116.4,1.28,15
24670,29.75,1060.41,11,22.71,1.42,-2.79,-7.94,3:45:31,34.219231,-112.948608,1116.5,1.07,15
25671,29.65,1060.41,5,22.71,0.17,-0.11,-8.98,3:45:32,34.219231,-112.948608,1116.5,0.53,15
26672,29.58,1060.59,13,22.73,1.56,-1.9,-9.54,3:45:33,34.219231,-112.948608,1116.5,0.67,15
27673,29.51,1060.68,15,22.73,-2.38,1.78,-9.17,3:45:34,34.219231,-112.948608,1116.5,1.28,15
28674,29.44,1060.68,14,22.79,0.08,-0.65,-9.54,3:45:35,34.219231,-112.948593,1116.5,1.23,15
29675,29.37,1060.68,11,22.73,1.6,-1.2,-9.02,3:45:36,34.219227,-112.948593,1116.6,1.09,15
30676,29.31,1060.78,10,22.8,-0.38,-1.37,-8.58,3:45:37,34.219231,-112.948593,1116.7,0.48,15
31677,29.27,1060.96,6,22.75,1.48,-0.08,-9.22,3:45:38,34.219223,-112.948586,1116.8,0.22,15
32678,29.23,1060.87,10,22.82,-0.11,-0.42,-8.56,3:45:39,34.219227,-112.948593,1116.8,0.22,15
33679,29.2,1060.87,14,22.75,0.33,-2.35,-10.49,3:45:40,34.219227,-112.948586,1116.8,0.33,15
34680,29.17,1060.87,13,22.73,-0.58,-1.94,-8.59,3:45:41,34.219227,-112.948586,1116.8,0.14,14
35681,29.11,1061.14,6,22.73,-2.23,-0.47,-8.8,3:45:42,34.219227,-112.948586,1116.8,0.98,15
36682,29.04,1061.33,8,22.77,-0.86,-1.17,-9.27,3:45:43,34.219223,-112.948586,1116.9,0.29,15
37683,28.99,1061.51,13,22.78,0.25,-0.55,-9.98,3:45:44,34.219227,-112.948593,1116.9,0.41,13
38684,28.95,1061.7,14,22.76,0.61,2.12,-8.94,3:45:45,34.219227,-112.948593,1116.9,0.43,13
39685,28.92,1061.7,8,22.8,1.72,-0.42,-9.71,3:45:46,34.219231,-112.948593,1116.9,0.52,15
40686,28.89,1061.88,5,22.79,-0.86,0.26,-9.91,3:45:47,34.219231,-112.948593,1116.9,0.31,15
41687,28.86,1061.79,8,22.78,0.69,-1.71,-10.62,3:45:48,34.219227,-112.948593,1116.9,0.36,15
42688,28.82,1061.88,8,22.75,1.42,0.44,-8.19,3:45:49,34.219227,-112.948586,1116.9,0.71,15
43689,28.79,1061.88,8,22.77,-0.15,-0.46,-7.03,3:45:50,34.219227,-112.948586,1116.8,0.69,15
44690,28.76,1061.97,6,22.79,-2.38,0.49,-7.69,3:45:51,34.219223,-112.94857,1116.7,1.35,15
45691,28.72,1061.97,8,22.8,0.01,0.3,-7.92,3:45:52,34.219219,-112.948555,1116.6,1.36,15
46692,28.69,1062.07,8,22.82,0.62,0.44,-9.56,3:45:53,34.219219,-112.948555,1116.4,1.65,15
time_since_start,bme_temp,bme_alt,uv,ism_temp,acc_x,acc_y,acc_z,gps_time,latitude,longitude,gps_alt,speed,sats
16653,0,1060.41,15,22.71,3.24,0.71,-8.67,,,,,,
17654,28.72,1060.41,16,22.73,3.14,1.86,-6.16,3:46:13,34.21917,-112.948425,1115.8,1.46,15
18655,28.52,1060.41,18,22.83,1.43,2.01,-7.4,3:46:14,34.219162,-112.948425,1115.2,2.04,15
19656,28.38,1060.41,18,22.84,-0.34,1.8,-7.11,3:46:15,34.219158,-112.948418,1115.3,2.01,15
20657,28.28,1060.31,14,22.86,-0.69,2.39,-11.03,3:46:16,34.219151,-112.948402,1115.3,1.91,15
21658,28.2,1060.31,16,22.86,2.95,4.77,-11.74,3:46:17,34.219151,-112.948402,1115.3,1.51,15
22659,28.13,1060.31,16,22.83,-1.99,0.44,-8.71,3:46:18,34.219151,-112.948387,1115.2,1.23,15
23660,28.09,1060.22,16,22.8,-1.27,-0.22,-7.36,3:46:19,34.219151,-112.948387,1115.2,1.51,15
24661,28.06,1060.22,15,22.8,-2.89,-1.01,-8.3,3:46:20,34.219143,-112.948364,1115.1,2.7,15
25662,28.04,1060.31,14,22.88,-2.52,-1.47,-8.41,3:46:21,34.219139,-112.948349,1114.9,1.16,15
26663,28.02,1060.22,15,22.84,-1.94,-1.11,-9.41,3:46:22,34.219139,-112.948349,1114.7,1.22,15
27664,28,1060.22,15,22.85,-3.14,-2.24,-11.08,3:46:23,34.219135,-112.948341,1114.5,1.82,15
28665,27.99,1060.22,15,22.92,-2.17,-0.99,-8.54,3:46:24,34.219131,-112.948326,1114.3,1.9,15
29666,27.98,1060.22,14,22.84,-4.25,-0.67,-8.63,3:46:25,34.219131,-112.948326,1114.1,2.11,15
30667,27.96,1060.31,15,22.91,-3.09,-1.75,-9.5,3:46:26,34.219131,-112.948311,1113.8,1.14,15
31668,27.94,1060.31,14,22.89,-2.28,-1.32,-8.21,3:46:27,34.219128,-112.948311,1113.7,1.14,15
32669,27.91,1060.31,14,22.91,-3.96,-0.07,-7.49,3:46:28,34.21912,-112.948303,1113.5,2.2,15
33670,27.87,1060.22,14,22.91,-3.29,-0.78,-9.35,3:46:29,34.21912,-112.948288,1113.3,1.15,15
34671,27.82,1060.22,13,22.93,-4.17,-0.77,-9.26,3:46:30,34.21912,-112.948288,1113.2,0.89,15
35672,27.79,1060.13,13,22.91,-3.64,-1,-8.22,3:46:31,34.219116,-112.948288,1113,0.81,15
36673,27.76,1059.94,14,22.93,-3.65,-0.49,-8.43,3:46:32,34.219116,-112.948273,1112.8,0.38,15
37674,27.72,1059.85,15,22.94,-2.65,-1.32,-7.7,3:46:33,34.219112,-112.948288,1112.7,0.4,15
38675,27.68,1059.58,14,22.92,-3.84,-0.47,-8.26,3:46:34,34.219109,-112.948288,1112.6,1.63,15
39676,27.64,1059.39,13,22.96,-2.8,-0.21,-8.65,3:46:35,34.219097,-112.948288,1112.2,1.84,15
40677,27.6,1059.11,11,22.91,-1.84,-0.64,-6.25,3:46:36,34.21909,-112.948288,1112,2.07,15
41678,27.57,1059.02,13,22.92,-4.19,0.03,-10.48,3:46:37,34.219082,-112.948273,1111.7,2.04,15
42679,27.5,1058.93,14,22.95,-1.61,-0.77,-8.08,3:46:38,34.219078,-112.948273,1111.7,1.4,15
43680,27.44,1058.74,15,22.91,-2.19,0.15,-7.6,3:46:39,34.219074,-112.948265,1111.6,0.98,15
44681,27.37,1058.28,18,22.96,-3.13,-1.23,-13.39,3:46:40,34.219074,-112.948265,1111.6,2.6,15
45682,27.33,1057.91,20,22.91,-2.5,-0.94,-8.01,3:46:41,34.21907,-112.948235,1111.2,2.62,15
46683,27.31,1057.45,26,22.95,-4.56,-0.98,-7.16,3:46:42,34.21907,-112.948227,1110.7,2.59,15
47684,27.29,1057.36,23,22.91,-4.83,-2.47,-8.47,3:46:43,34.219074,-112.948227,1110.3,1.88,15
48685,27.28,1057.45,21,22.95,-2.77,-0.97,-7.05,3:46:44,34.219078,-112.948212,1110.2,2.12,15
49686,27.28,1057.27,18,22.94,-3.69,-1.76,-8.78,3:46:45,34.219086,-112.948196,1110.2,1.77,15
50687,27.27,1057.45,16,22.93,-5.25,-1.49,-9.95,3:46:46,34.21909,-112.948189,1110.1,1.76,15
51688,27.26,1057.18,19,22.96,-4.36,-0.46,-7.56,3:46:47,34.21909,-112.948189,1110,1.68,15
52689,27.24,1057.08,20,22.94,-5.31,-0.17,-6.41,3:46:48,34.21909,-112.948174,1110,2,15
53690,27.21,1057.18,19,22.94,-5.8,-0.47,-8.28,3:46:49,34.21909,-112.948158,1110,2.12,15
54691,27.2,1057.18,23,22.95,-5.74,-0.14,-10.28,3:46:50,34.21909,-112.948158,1110,2.42,15
55692,27.18,1057.18,19,22.96,-4.82,0.64,-6.03,3:46:51,34.219093,-112.948151,1110.1,1.75,15
56693,27.17,1056.62,19,22.96,-4.79,0.06,-8.41,3:46:52,34.219093,-112.948135,1110,1.74,15
57694,27.17,1056.62,18,22.95,-8.38,1,-8.61,3:46:53,34.219093,-112.94812,1109.9,2.43,15
58695,27.16,1056.72,19,22.93,-6.16,0.75,-6.82,3:46:54,34.21909,-112.948112,1110,2.14,15
59696,27.14,1056.72,18,22.97,-8.68,2.09,-8.36,3:46:55,34.21909,-112.948112,1109.9,1.43,15
60697,27.1,1056.62,16,22.96,-5.45,1.48,-5.65,3:46:56,34.219086,-112.948097,1109.6,1.69,15
61698,27.06,1056.72,18,22.97,-5.43,0.89,-6.94,3:46:57,34.219086,-112.948097,1109.5,0.86,15
62699,27.01,1056.53,20,22.98,-7.44,0.12,-9.33,3:46:58,34.219078,-112.948082,1109.3,1.97,15
63700,26.94,1056.25,16,22.98,-4.26,0.48,-6.18,3:46:59,34.21907,-112.948082,1109.1,2.47,15
64701,26.9,1056.07,16,22.95,-7.75,1.26,-5.95,3:47:00,34.219063,-112.948082,1109,2.46,15
65702,26.86,1055.98,20,22.98,-5.88,1.22,-8.28,3:47:01,34.219051,-112.948067,1108.6,2.11,15
66703,26.84,1055.79,19,22.96,-7.16,1.22,-10.9,3:47:02,34.219051,-112.948059,1108.5,1.44,15
67704,26.81,1055.79,20,22.95,-4.81,0.05,-5.47,3:47:03,34.219048,-112.948044,1108.5,2.65,15
68705,26.76,1056.07,18,22.98,-7.36,0.64,-9.5,3:47:04,34.219051,-112.948029,1108.7,2.73,15
69706,26.71,1055.98,16,22.97,-4.12,0.01,-6.28,3:47:05,34.219051,-112.948021,1108.8,1.43,15
70707,26.66,1056.07,13,22.98,-10.56,1.95,-8.55,3:47:06,34.219051,-112.948006,1108.6,2.04,15
71708,26.63,1055.79,24,23,-6.09,0.64,-7.02,3:47:07,34.219048,-112.94799,1108.4,2.52,15
72709,26.59,1055.7,20,23.03,-6.88,4.06,-11.58,3:47:08,34.219048,-112.947983,1108.4,1.81,15
73710,26.55,1055.42,23,22.97,-6.07,2.02,-7.03,3:47:09,34.219051,-112.947983,1108.3,1.75,15
74711,26.53,1055.24,25,22.97,-5.17,2.1,-4.79,3:47:10,34.219051,-112.947968,1108.2,1.09,15
75712,26.52,1055.24,48,23.04,-5.9,2.52,-7.03,3:47:11,34.219051,-112.947968,1108,1.95,15
76713,26.51,1055.15,18,23,-3.35,2.16,-6.12,3:47:12,34.219055,-112.947952,1107.9,2.6,15
77714,26.52,1055.15,25,22.98,-5.36,2.2,-7.21,3:47:13,34.219059,-112.947945,1107.8,1.5,15
78715,26.52,1055.05,26,23.01,-3.55,1.43,-6.37,3:47:14,34.219067,-112.947945,1107.8,1.5,15
79716,26.52,1054.96,15,22.97,-6.62,2.73,-7.09,3:47:15,34.21907,-112.947945,1107.8,0.71,15
80717,26.52,1055.05,16,23.05,-6.6,2.2,-6.88,3:47:16,34.21907,-112.947945,1107.7,0.37,15
81718,26.52,1055.15,13,23.04,-6.26,2.7,-6.81,3:47:17,34.21907,-112.947945,1107.7,0.36,15
82719,26.52,1055.24,15,23.01,-6.08,2.89,-6.81,3:47:18,34.21907,-112.947945,1107.7,0.14,15
83720,26.52,1055.15,18,23.04,-6.61,1.7,-6.9,3:47:19,34.21907,-112.947945,1107.6,0.05,14
84721,26.52,1055.05,16,23,-6.58,2.43,-7.33,3:47:20,34.21907,-112.947945,1107.6,0.32,15
85722,26.51,1055.05,15,23.01,-9.71,2.11,-10.24,3:47:21,34.21907,-112.947945,1107.7,1.24,15
86723,26.51,1054.78,19,23.03,-5.48,2.36,-6.27,3:47:22,34.219063,-112.947929,1107.7,1.2,15
87724,26.52,1054.5,26,23.06,-6.12,3.39,-6.94,3:47:23,34.219063,-112.947929,1107.7,1.29,15
88725,26.53,1054.41,15,23.05,-5.68,2.02,-6.11,3:47:24,34.219059,-112.947929,1107.7,1.12,15
89726,26.54,1054.41,18,23.04,-5.66,4.34,-7.56,3:47:25,34.219055,-112.947914,1107.7,1.07,15
90727,26.54,1054.32,16,23.04,-6.36,2.01,-6.87,3:47:26,34.219051,-112.947914,1107.7,1.35,15
91728,26.54,1054.13,16,23.06,-4.81,6.36,-8.57,3:47:27,34.219048,-112.947914,1107.6,1.21,15
92729,26.54,1054.04,16,23.08,-3.91,4.31,-7.48,3:47:28,34.219048,-112.947914,1107.5,0.25,15
93730,26.56,1053.95,16,23.02,-3.83,5,-7.17,3:47:29,34.219044,-112.947914,1107.6,0.13,15
94731,26.59,1054.04,15,23.07,-3.62,4.43,-7.62,3:47:30,34.219044,-112.947914,1107.5,0.16,15
95732,26.61,1053.95,16,23.07,-3.93,4.87,-7.19,3:47:31,34.219044,-112.947914,1107.5,0.14,15
96733,26.63,1053.95,16,23.04,-3.88,5.07,-7.05,3:47:32,34.219044,-112.947914,1107.5,0.33,15
97734,26.64,1053.95,15,23.09,-3.72,4.79,-7.28,3:47:33,34.219044,-112.947914,1107.5,0.09,15
98735,26.66,1053.95,14,23.1,-5.43,3.11,-7.29,3:47:34,34.219044,-112.947914,1107.6,0.18,14
99736,26.67,1053.76,19,23.05,-6.3,3.48,-7.58,3:47:35,34.219044,-112.947914,1107.7,1.13,15
100737,26.68,1053.76,18,23.05,-4.76,1.84,-6.32,3:47:36,34.21904,-112.947914,1107.7,0.96,15
101738,26.69,1053.58,16,23.06,-5.13,2.83,-5.67,3:47:37,34.219036,-112.947914,1107.7,0.89,15
102739,26.7,1053.76,15,23.07,-6.87,3.96,-8.09,3:47:38,34.219036,-112.947914,1107.8,0.32,15
103740,26.71,1053.76,14,23.09,-5.45,1.88,-7.16,3:47:39,34.219032,-112.947914,1107.8,0.86,15
104741,26.72,1053.58,18,23.08,-8.16,2.89,-9.15,3:47:40,34.219032,-112.947914,1107.7,1.28,14
105742,26.72,1053.3,21,23.12,-4.64,2.43,-4.5,3:47:41,34.219028,-112.947914,1107.6,1.31,14
106743,26.73,1052.75,6,23.07,-4.05,2.42,-6,3:47:42,34.219025,-112.947906,1107.5,1.06,14
107744,26.73,1052.66,18,23.07,-6.82,3.4,-9.78,3:47:43,34.219021,-112.947906,1107.2,1.37,14
108745,26.73,1052.66,26,23.13,-5.43,2.21,-4.65,3:47:44,34.219017,-112.947906,1107.4,1.21,14
109746,26.74,1052.47,33,23.07,-4.63,1.5,-6.04,3:47:45,34.219013,-112.947891,1107.4,1.27,14
110747,26.75,1052.38,26,23.15,-5.54,2.69,-7.26,3:47:46,34.219013,-112.947891,1107.5,0.35,14
111748,26.77,1052.38,25,23.11,-6.02,2.13,-7.07,3:47:47,34.219009,-112.947891,1107.5,0.54,14
112749,26.78,1052.29,67,23.11,-5.36,2.75,-7.76,3:47:48,34.219009,-112.947891,1107.5,0.18,14
113750,26.8,1051.64,34,23.08,-6.45,2.58,-7.26,3:47:49,34.219009,-112.947891,1107.4,0.28,14
114751,26.82,1051.73,29,23.09,-7.68,2.66,-7.7,3:47:50,34.219009,-112.947891,1107.5,1.27,14
115752,26.86,1051.83,18,23.12,-4.93,1.85,-6.42,3:47:51,34.219009,-112.947891,1107.4,1.08,14
116753,26.88,1051.37,19,23.1,-7.34,3.06,-8.44,3:47:52,34.219009,-112.947891,1107.5,0.23,14
117754,26.92,1051.46,21,23.14,-6.25,3.21,-6.06,3:47:53,34.219009,-112.947876,1107.4,1.38,14
118755,26.95,1051.46,1,23.12,-4.84,2.58,-6.27,3:47:54,34.219013,-112.947868,1107.4,0.94,14
119756,26.99,1051.37,93,23.14,-7.36,2.55,-8.63,3:47:55,34.219013,-112.947868,1107.5,1.45,14
120757,27.02,1051.46,20,23.19,-7.73,1.96,-7.02,3:47:56,34.219013,-112.947853,1107.6,1.38,14
121758,27.07,1051.64,19,23.13,-5.28,2.25,-6.59,3:47:57,34.219017,-112.947838,1107.8,1.99,14
122759,27.12,1051.83,18,23.13,-8.17,1.64,-9.17,3:47:58,34.219021,-112.947838,1107.9,2.35,14
123760,27.16,1051.64,24,23.16,-9.27,0.9,-7.71,3:47:59,34.219028,-112.947815,1107.7,1.82,14
124761,27.2,1051.73,16,23.14,-5.02,3,-5.81,3:48:00,34.219032,-112.9478,1107.7,1.78,14
125762,27.23,1051.73,21,23.16,-7.02,2.12,-7.43,3:48:01,34.219032,-112.9478,1107.8,1.8,14
126763,27.26,1051.73,11,23.18,-5.2,1.14,-7.34,3:48:02,34.219032,-112.947792,1107.8,2.14,14
127764,27.28,1051.92,23,23.17,-7.23,1.42,-7.13,3:48:03,34.219036,-112.947777,1107.9,1.92,14
128765,27.3,1051.92,62,23.2,-6.3,1.71,-8.47,3:48:04,34.219036,-112.947762,1108.1,1.16,14
129766,27.32,1051.92,25,23.18,-8.42,1.69,-9.97,3:48:05,34.219036,-112.947762,1107.9,1.36,14
130767,27.36,1051.83,26,23.13,-6.29,0.81,-6.44,3:48:06,34.219036,-112.947762,1107.8,1.23,14
131768,27.39,1051.92,31,23.16,-5.84,1.14,-6.87,3:48:07,34.21904,-112.947754,1107.7,1.77,14
132769,27.42,1051.83,10,23.13,-6.46,3.41,-7.73,3:48:08,34.21904,-112.947739,1107.5,1.95,14
133770,27.45,1051.83,14,23.17,-5.81,2.98,-8.2,3:48:09,34.219048,-112.947739,1107.6,2.18,14
134771,27.47,1051.73,10,23.16,-5.32,2.23,-6.69,3:48:10,34.219051,-112.947723,1107.7,2.21,14
135772,27.48,1051.73,10,23.17,-3.26,6.18,-5.71,3:48:11,34.219055,-112.947723,1107.8,1.36,14
136773,27.47,1051.73,10,23.18,-6.89,2.05,-5.69,3:48:12,34.219059,-112.947723,1107.9,0.36,14
137774,27.45,1051.83,10,23.19,-2.54,2.72,-6.59,3:48:13,34.219059,-112.947723,1107.9,0.9,14
138775,27.44,1051.83,8,23.19,-5.46,3.88,-7.55,3:48:14,34.219059,-112.947716,1107.9,0.66,14
139776,27.42,1051.73,8,23.2,-5.31,8.48,-10.06,3:48:15,34.219059,-112.947716,1107.8,0.62,14
140777,27.4,1051.55,10,23.13,-2.62,3.04,-5.72,3:48:16,34.219059,-112.947716,1107.7,1.5,14
141778,27.39,1051.46,9,23.16,-4.3,3.49,-6.83,3:48:17,34.219059,-112.947716,1107.8,0.37,14
142779,27.39,1051.46,5,23.18,-7.55,2.09,-6.54,3:48:18,34.219059,-112.947701,1107.7,0.62,14
143780,27.38,1051.37,8,23.16,-6.02,-1.48,-6.95,3:48:19,34.219059,-112.947701,1107.6,1.07,14
144781,27.37,1051.27,11,23.2,-7.26,2.95,-6.37,3:48:20,34.219059,-112.947685,1107.6,1.15,14
145782,27.37,1051.09,8,23.19,-7.76,1.85,-6.57,3:48:21,34.219063,-112.947685,1107.5,0.99,14
146783,27.36,1051,19,23.19,-5.94,2.85,-4.69,3:48:22,34.219067,-112.94767,1107.5,1.22,14
147784,27.35,1050.54,13,23.2,-6.87,1.42,-5.86,3:48:23,34.219067,-112.94767,1107.4,0.55,14
148785,27.35,1050.54,75,23.18,-6.77,1.07,-6.86,3:48:24,34.219063,-112.94767,1107.4,2.03,14
149786,27.35,1050.63,9,23.21,-6.47,2.42,-6.51,3:48:25,34.21907,-112.947662,1107.5,2.54,14
150787,27.35,1050.54,9,23.16,-7.26,-0.29,-9.06,3:48:26,34.219074,-112.947647,1107.4,1.16,14
151788,27.36,1050.44,9,23.2,-5.83,2.47,-5.45,3:48:27,34.219078,-112.947647,1107.5,0.67,14
152789,27.35,1050.54,10,23.18,-6.16,3.54,-5.79,3:48:28,34.219082,-112.947647,1107.4,0.93,14
153790,27.35,1050.54,8,23.19,-7.93,3.66,-4.33,3:48:29,34.219082,-112.947647,1107.4,0.71,14
154791,27.33,1050.63,1,23.21,-7.66,2.37,-3.75,3:48:30,34.219086,-112.947632,1107.4,0.63,14
time_since_start,bme_temp,bme_alt,uv,ism_temp,acc_x,acc_y,acc_z,gps_time,latitude,longitude,gps_alt,speed,sats
16655,0,1050.44,4,23.12,-8.26,0.69,-2.92,,,,,,
17656,27.28,1049.89,3,23.19,-7.83,-0.19,-2.56,3:48:39,34.219093,-112.947571,1107.7,1.67,14
18657,26.97,1049.43,6,23.2,-8.56,1.78,-1.97,3:48:50,34.219048,-112.94751,1104.6,1.55,15
19658,26.75,1049.15,5,23.22,-8.81,0.22,-4.01,3:48:51,34.219044,-112.947495,1104.3,2.12,15
20659,26.57,1048.69,8,23.2,-8.37,1.61,-3.69,3:48:52,34.21904,-112.947479,1104,1.89,15
21660,26.43,1048.6,8,23.23,-8.17,2.32,-3.48,3:48:53,34.219032,-112.947479,1103.6,1.82,15
22661,26.32,1048.42,8,23.23,-8.37,0.88,-3.06,3:48:54,34.219032,-112.947472,1103.2,1.78,15
23662,26.22,1048.23,6,23.22,-8.98,1.2,-2.48,3:48:55,34.219028,-112.947472,1102.8,1.65,15
24663,26.14,1047.95,5,23.23,-9.56,-0.05,-5.52,3:48:56,34.219028,-112.947456,1102.5,1.95,15
25664,26.09,1047.77,8,23.23,-8.37,0.1,-3.83,3:48:57,34.219032,-112.947441,1102.1,1.62,15
26665,26.05,1047.86,9,23.29,-8.69,0.33,-4.09,3:48:58,34.219032,-112.947441,1101.9,1.1,15
27666,26.03,1047.77,8,23.23,-8.47,0.54,-4.76,3:48:59,34.219032,-112.947433,1101.6,1.25,15
28667,25.99,1047.68,6,23.23,-8.87,0.59,-3.11,3:49:00,34.219036,-112.947433,1101.6,0.43,15
29668,25.93,1047.59,9,23.26,-7.03,-2.24,-3.76,3:49:01,34.219036,-112.947433,1101.4,0.56,15
30669,25.91,1047.49,5,23.23,-7.73,1.29,-4.92,3:49:02,34.219036,-112.947433,1101.4,0.71,15
31670,25.89,1047.49,8,23.23,-11.71,0.65,-1.05,3:49:03,34.219036,-112.947433,1101.4,0.26,15
32671,25.87,1047.49,8,23.24,-7.34,-1.59,-4.21,3:49:04,34.21904,-112.947418,1101.1,0.73,15
33672,25.83,1047.49,5,23.22,-8.75,0.11,-2.99,3:49:05,34.21904,-112.947418,1100.9,0.18,15
34673,25.81,1047.49,8,23.25,-11.15,1.87,-2.79,3:49:06,34.21904,-112.947418,1101,0.12,15
35674,25.79,1047.4,8,23.2,-8.21,1.21,-5.52,3:49:07,34.219044,-112.947418,1100.9,0.4,15
36675,25.78,1047.4,6,23.23,-9.95,1.73,-5.85,3:49:08,34.219048,-112.947418,1100.8,2.26,15
37676,25.77,1047.49,8,23.22,-9.09,0.59,-5.06,3:49:09,34.219055,-112.947403,1100.8,1.31,15
38677,25.76,1047.59,11,23.26,-7.7,2.14,-3.56,3:49:10,34.219063,-112.947403,1100.8,1.71,15
39678,25.75,1047.68,8,23.24,-8.52,2.51,-4.81,3:49:11,34.21907,-112.947403,1100.8,1.44,15
40679,25.74,1047.49,8,23.23,-9.42,1.04,-5.21,3:49:12,34.219078,-112.947395,1100.8,1.95,15
41680,25.74,1047.4,6,23.23,-6.48,2.7,-3.98,3:49:13,34.219086,-112.947395,1100.8,1.88,15
42681,25.72,1047.4,8,23.23,-7.84,4.03,-3.82,3:49:14,34.21909,-112.94738,1100.8,2.04,15
43682,25.7,1047.31,14,23.24,-6.84,0.7,-4.48,3:49:15,34.219093,-112.94738,1100.9,1.43,15
44683,25.68,1047.12,14,23.21,-8.34,1.63,-4.26,3:49:16,34.219109,-112.947365,1100.9,2.27,15
45684,25.68,1047.03,13,23.24,-11.14,3.96,-5.08,3:49:17,34.219112,-112.947365,1100.6,0.68,15
46685,25.68,1046.85,9,23.24,-6.33,1.94,-4.22,3:49:18,34.219116,-112.947365,1100.5,1.39,15
47686,25.68,1046.85,11,23.23,-7.31,2.19,-4.77,3:49:19,34.219124,-112.947357,1100.4,1.99,15
48687,25.68,1046.76,10,23.28,-7.78,4.09,-4.92,3:49:20,34.219131,-112.947357,1100.3,1.96,15
49688,25.69,1046.85,9,23.24,-6.82,2.31,-4.21,3:49:21,34.219135,-112.947357,1100.3,1.22,15
50689,25.69,1046.85,10,23.27,-8.73,3.01,-6.29,3:49:22,34.219143,-112.947342,1100.3,2.2,15
51690,25.68,1046.85,11,23.26,-9.38,1.18,-5.08,3:49:23,34.219151,-112.947342,1100.5,1.78,15
52691,25.68,1047.12,11,23.25,-8.1,1.31,-5.97,3:49:24,34.219162,-112.947342,1100.6,1.46,15
53692,25.69,1047.4,13,23.27,-9.9,1.31,-6.04,3:49:25,34.21917,-112.947342,1100.7,1.85,15
54693,25.68,1047.49,13,23.29,-6.04,1.73,-3.22,3:49:26,34.219173,-112.947327,1100.8,1.68,15
55694,25.67,1047.59,11,23.23,-9.93,3.3,-5.09,3:49:27,34.219185,-112.947327,1100.9,1.7,15
56695,25.67,1047.86,8,23.29,-7.28,1.6,-4.37,3:49:28,34.219193,-112.947327,1101,2.12,15
57696,25.65,1047.86,11,23.26,-6.61,0.01,-4.53,3:49:29,34.2192,-112.947311,1101.1,2.08,15
58697,25.63,1047.77,9,23.26,-9.53,2.88,-5.57,3:49:30,34.219204,-112.947311,1101.2,1.86,15
59698,25.62,1047.59,8,23.3,-8.24,1.55,-4.57,3:49:31,34.219208,-112.947304,1101.2,2.2,15
60699,25.62,1047.59,11,23.28,-7.67,-0.5,-5.71,3:49:32,34.219219,-112.947304,1101.3,2.16,15
61700,25.62,1047.68,9,23.25,-6.82,3.36,-2.12,3:49:33,34.219231,-112.947289,1101.4,2.01,15
62701,25.61,1047.59,10,23.24,-8.63,1.82,-5.72,3:49:34,34.219234,-112.947289,1101.6,2.36,15
63702,25.61,1047.4,15,23.25,-8.52,0.37,-6.12,3:49:35,34.21925,-112.947273,1101.4,2.62,15
64703,25.61,1047.31,11,23.29,-7.33,2.48,-4.35,3:49:36,34.219261,-112.947266,1101.5,1.93,15
65704,25.61,1047.31,13,23.27,-7.48,0.82,-5.38,3:49:37,34.219269,-112.947266,1101.5,1.89,15
66705,25.6,1047.4,13,23.25,-6.68,2.15,-3.62,3:49:38,34.219269,-112.947266,1101.5,1.28,15
67706,25.58,1047.4,11,23.32,-8.48,1.67,-5.01,3:49:39,34.219273,-112.94725,1101.6,1.25,15
68707,25.56,1047.49,10,23.27,-4.89,0.62,-4.88,3:49:40,34.219273,-112.947235,1101.6,1.89,15
69708,25.55,1047.49,11,23.24,-12.8,-4.12,-6.96,3:49:41,34.219276,-112.947235,1101.6,1.98,15
70709,25.53,1047.59,10,23.3,-4.87,2.08,-4.9,3:49:42,34.21928,-112.947227,1101.6,2.18,15
71710,25.52,1047.68,13,23.28,-4.86,2.5,-4.57,3:49:43,34.21928,-112.947212,1101.4,2.13,15
72711,25.51,1047.4,15,23.28,-8.98,-2.53,-6.36,3:49:44,34.219284,-112.947197,1101.4,2.39,15
time_since_start,bme_temp,bme_alt,uv,ism_temp,acc_x,acc_y,acc_z,gps_time,latitude,longitude,gps_alt,speed,sats
16658,0,1047.95,13,23.21,-7.25,2.84,-6.01,,,,,,
17658,25.93,1047.95,10,23.28,-8.04,1.08,-5.73,3:49:53,34.219288,-112.947174,1100.8,0.22,15
18659,25.76,1048.05,5,23.31,-8.26,1.94,-5.66,3:50:04,34.219322,-112.947159,1100.5,1.57,15
19660,25.62,1048.05,6,23.33,-7.5,0.99,-6.12,3:50:05,34.219322,-112.947159,1100.4,0.21,15
20661,25.53,1048.23,8,23.32,-7.14,2.34,-5.18,3:50:06,34.219322,-112.947159,1100.4,0.1,15
21662,25.44,1048.23,14,23.3,-7.74,1.83,-5.04,3:50:07,34.219326,-112.947159,1100.3,1.02,15
22663,25.35,1048.14,14,23.36,-9.1,2.9,-7.56,3:50:08,34.219326,-112.947151,1100.5,0.41,15
23664,25.27,1047.95,15,23.33,-6.15,3.51,-4.41,3:50:09,34.219326,-112.947151,1100.4,0.62,15
24665,25.22,1047.86,16,23.32,-6.77,2.53,-5.71,3:50:10,34.21933,-112.947151,1100.4,1.85,15
25666,25.2,1047.86,13,23.35,-8.98,2.23,-6.25,3:50:11,34.219334,-112.947136,1100.4,2.21,15
26667,25.19,1047.59,15,23.33,-9.44,2.36,-6.98,3:50:12,34.219341,-112.947136,1100.4,1.9,15
27668,25.18,1047.59,14,23.39,-7.28,2.38,-6.59,3:50:13,34.219349,-112.947121,1100.4,1.66,15
28669,25.17,1047.59,9,23.34,-6.97,1.78,-5.65,3:50:14,34.219349,-112.947121,1100.4,1.85,15
29670,25.17,1047.59,8,23.35,-8.15,3.58,-6.14,3:50:15,34.219357,-112.947113,1100.4,2.52,15
30671,25.16,1047.68,11,23.35,-6.51,-0.19,-8.15,3:50:16,34.21936,-112.947098,1100.2,2.23,15
31672,25.16,1047.86,15,23.32,-7.14,1.58,-5.54,3:50:17,34.219368,-112.947098,1100.2,2.26,15
32673,25.15,1047.86,14,23.37,-8.48,2.95,-6.17,3:50:18,34.219372,-112.947098,1100,1.89,15
33674,25.14,1047.77,14,23.37,-6.3,1.38,-5.79,3:50:19,34.219379,-112.947083,1100,2.16,15
34675,25.13,1047.68,14,23.36,-7.13,2.41,-6.2,3:50:20,34.219383,-112.947075,1100,1.31,15
35676,25.13,1047.68,9,23.36,-5.58,3.52,-4.86,3:50:21,34.219387,-112.947075,1100,1.25,15
36677,25.12,1047.86,6,23.33,-6.65,0.51,-7.97,3:50:22,34.219391,-112.947075,1100,1.73,15
37678,25.12,1047.86,5,23.4,-4.64,-0.37,-7.4,3:50:23,34.219398,-112.94706,1099.9,0.92,15
38679,25.12,1047.95,11,23.35,-6.73,0.58,-8.08,3:50:24,34.219398,-112.94706,1099.8,0.55,15
39680,25.13,1047.86,8,23.4,-6.2,1.1,-7.16,3:50:25,34.219402,-112.94706,1099.7,0.44,15
40681,25.13,1047.86,10,23.41,-4,1.67,-5.74,3:50:26,34.219402,-112.94706,1099.5,0.39,15
41682,25.13,1047.77,14,23.4,-7.19,2.05,-5.49,3:50:27,34.219402,-112.94706,1099.4,1.09,15
42683,25.14,1047.59,11,23.37,-8.5,1.19,-7.48,3:50:28,34.219406,-112.947044,1099.4,1.23,15
43684,25.14,1047.49,14,23.39,-6.41,2.23,-5.67,3:50:29,34.21941,-112.947044,1099.4,1.19,15
44685,25.14,1047.31,18,23.36,-5.92,2.11,-5.57,3:50:30,34.219421,-112.947044,1099.4,3.05,15
45686,25.14,1047.22,14,23.35,-7.11,3.17,-7.12,3:50:31,34.219433,-112.947037,1099.5,2.97,15
46687,25.14,1047.12,14,23.34,-7.51,0.38,-5.34,3:50:32,34.219448,-112.947021,1099.2,2.45,15
47688,25.13,1047.12,13,23.41,-8.5,2.4,-7.41,3:50:33,34.219456,-112.947021,1098.9,2.28,15
48689,25.13,1047.03,14,23.41,-6.69,3.63,-4.94,3:50:34,34.21946,-112.947006,1098.2,2.21,15
49690,25.12,1046.85,14,23.39,-6.21,1.92,-6.15,3:50:35,34.219463,-112.947006,1098.3,2.14,15
50691,25.12,1046.76,15,23.39,-5.53,0.77,-5.02,3:50:36,34.219467,-112.946999,1098.3,2.75,15
51692,25.11,1046.66,14,23.39,-7.55,1.15,-5.24,3:50:37,34.219482,-112.946983,1098,2.31,15
52693,25.1,1046.66,15,23.39,-10.14,0.93,-7.45,3:50:38,34.219486,-112.946968,1097.5,3.02,15
53694,25.09,1046.57,11,23.36,-4.48,0.52,-5.51,3:50:39,34.219494,-112.94696,1097.3,3.8,15
54695,25.09,1046.66,14,23.39,-7.48,2.8,-6.51,3:50:40,34.219501,-112.94696,1097.2,2.21,15
55696,25.08,1046.39,16,23.42,-7.83,4.24,-4.93,3:50:41,34.219509,-112.946945,1097.1,1.73,15
56697,25.07,1046.3,16,23.41,-7.47,5.96,-6.54,3:50:42,34.219517,-112.946945,1097,2.13,15
57698,25.07,1046.48,15,23.41,-2.53,1.12,-7.39,3:50:43,34.219528,-112.946945,1097,2.39,15
58699,25.05,1046.39,19,23.38,-8.72,2.9,-7.73,3:50:44,34.219532,-112.946945,1096.7,2,15
time_since_start,bme_temp,bme_alt,uv,ism_temp,acc_x,acc_y,acc_z,gps_time,latitude,longitude,gps_alt,speed,sats
time_since_start,bme_temp,bme_alt,uv,ism_temp,acc_x,acc_y,acc_z,gps_time,latitude,longitude,gps_alt,speed,sats
16654,0,1044.82,11,23.32,-7.06,4.8,-8.69,,,,,,
17655,24.93,1044.45,10,23.41,-4.52,3.41,-6.68,3:51:04,34.219563,-112.946838,1097.3,1.74,15
18656,24.71,1044.27,9,23.4,-5.56,5.18,-5.23,3:51:15,34.219624,-112.946739,1097.3,2.18,15
19657,24.56,1044.08,10,23.43,-4.51,4.94,-8.58,3:51:16,34.219627,-112.946724,1094.8,3.26,15
20658,24.45,1043.99,10,23.39,-6.62,1.58,-5.25,3:51:17,34.219631,-112.946716,1094.2,3.21,15
21659,24.37,1043.9,11,23.41,-5.43,4.19,-9.12,3:51:19,34.219635,-112.946701,1093.8,1.92,15
22660,24.31,1043.81,10,23.38,-5.95,-0.22,-11.12,3:51:20,34.219643,-112.946686,1093.8,0.74,15
23661,24.27,1043.81,8,23.43,-8.43,3.24,-4.73,3:51:21,34.219643,-112.946686,1093.7,1.5,15
24662,24.25,1043.71,9,23.4,-2.35,2.38,-6.84,3:51:22,34.219646,-112.946678,1093.7,1.1,15
25663,24.23,1043.71,13,23.42,-6.05,1.39,-6.35,3:51:23,34.219646,-112.946663,1093.6,1.77,15
26664,24.21,1043.62,10,23.42,-7.43,3.95,-7.32,3:51:24,34.21965,-112.946663,1093.5,2.09,15
27665,24.21,1043.44,10,23.42,-9.33,3.14,-5.38,3:51:25,34.21965,-112.946648,1093.4,1.81,15
28666,24.2,1043.25,9,23.41,-5.63,2.26,-4.06,3:51:26,34.21965,-112.94664,1093.3,1.88,15
29667,24.2,1043.16,8,23.45,-7.47,2.6,-6.33,3:51:27,34.219658,-112.946625,1092.8,2.26,15
30668,24.2,1042.98,11,23.43,-9.74,5.36,-4.69,3:51:28,34.219658,-112.946609,1092.7,1.51,15
31669,24.2,1042.98,10,23.42,-4.22,5,-4.53,3:51:29,34.219654,-112.946609,1092.8,1.3,15
32670,24.2,1042.7,10,23.44,-6.2,2.66,-6.2,3:51:30,34.21965,-112.946609,1092.7,1.32,15
33671,24.2,1042.52,13,23.41,-6.05,2.13,-8.33,3:51:31,34.219646,-112.946602,1092.7,1.29,15
34672,24.2,1042.43,9,23.44,-3.49,0.46,-3.6,3:51:31,34.219646,-112.946602,1092.7,1.28,15
35673,24.2,1042.24,10,23.46,-7.61,3.02,-6.66,3:51:33,34.219643,-112.946587,1092.5,1.36,15
36674,24.2,1042.06,9,23.43,-5.61,3.41,-6,3:51:34,34.219635,-112.946587,1092.4,1.76,15
37675,24.19,1042.06,9,23.45,-8.37,1.93,-9.89,3:51:35,34.219631,-112.946587,1092.4,1.8,15
38676,24.18,1041.78,9,23.44,-4.52,1.48,-4.93,3:51:35,34.219631,-112.946587,1092.4,1.69,15
39677,24.17,1041.6,9,23.44,-4.7,3.04,-5.79,3:51:37,34.219627,-112.946571,1092.4,1.69,15
40678,24.16,1041.41,10,23.45,-7.21,2.35,-7.03,3:51:38,34.219624,-112.946571,1092.3,1.32,15
41679,24.17,1041.23,11,23.45,-8.93,1.81,-5.88,3:51:39,34.219624,-112.946564,1092.1,1.16,15
42680,24.17,1041.04,10,23.46,-5.28,5.02,-5.71,3:51:40,34.219624,-112.946564,1092,1.34,15
43681,24.18,1040.77,10,23.45,-8.19,-2.16,-10.32,3:51:41,34.219627,-112.946564,1091.9,1.5,15
44682,24.19,1040.58,9,23.43,-6.94,3.18,-5.75,3:51:42,34.219627,-112.946548,1091.8,1.1,15
45683,24.18,1040.4,14,23.44,-8.47,0.64,-4.71,3:51:43,34.219631,-112.946533,1091.7,2.14,15
46684,24.17,1040.21,15,23.42,-6.03,7.13,-5.15,3:51:44,34.219639,-112.946518,1091.5,2.42,15
47685,24.14,1040.03,21,23.46,-5.51,4.44,-2.36,3:51:45,34.219646,-112.946495,1090.8,3.82,15
48686,24.11,1039.75,15,23.51,-6.88,6.89,-10.28,3:51:46,34.21965,-112.94648,1090.8,3.23,15
49687,24.09,1039.57,16,23.45,-5.24,2.34,-4.99,3:51:47,34.219658,-112.946472,1090.2,3.21,15
50688,24.07,1039.39,16,23.47,-4.78,4.37,-6.38,3:51:48,34.219666,-112.946442,1090.2,3.71,15
51689,24.06,1039.2,18,23.48,-8.53,4.14,-4.39,3:51:49,34.219669,-112.946442,1090.1,1.13,15
52690,24.05,1038.92,77,23.47,-6.3,4.38,-3.09,3:51:50,34.219673,-112.946434,1090,1.65,15
53691,24.03,1038.56,26,23.46,-6.13,4.38,-2.34,3:51:51,34.219681,-112.946434,1089.8,1.7,15
54692,24.02,1038.19,18,23.46,-6.85,5.76,-2.75,3:51:52,34.219681,-112.946419,1089.6,1.7,15
55693,24.03,1037.64,18,23.45,-7.52,4.31,-3.13,3:51:53,34.219685,-112.946404,1089.4,2.22,15
56694,24.06,1037.64,16,23.49,-6.61,3.57,-2.36,3:51:54,34.219677,-112.946404,1089.1,2.49,15
57695,24.08,1037.64,16,23.45,-7.99,6.42,-2.91,3:51:55,34.219666,-112.946396,1088.8,2.46,15
58696,24.1,1037.45,18,23.47,-9.39,6.05,-2.8,3:51:56,34.21965,-112.946396,1088.6,2.73,15
59697,24.12,1037.36,16,23.48,-6.71,4.58,-2.5,3:51:57,34.219635,-112.946396,1088.2,3.49,15
60698,24.14,1037.18,18,23.48,-5.65,6.38,-2.61,3:51:58,34.219627,-112.946381,1088,3.45,15
61699,24.15,1036.62,21,23.47,-7.43,5.95,-2.67,3:51:59,34.21962,-112.946381,1087.8,2.38,15
62700,24.18,1036.62,63,23.45,-5.64,6,-2.24,3:52:00,34.219616,-112.946381,1087.9,2.35,15
63701,24.2,1036.81,18,23.5,-7.82,6.59,-2.15,3:52:01,34.219612,-112.946381,1087.9,0.69,15
64702,24.23,1037.08,4,23.46,-8.68,7.4,-1.7,3:52:02,34.219616,-112.946381,1087.9,0.48,15
65703,24.25,1037.45,0,23.49,-5.65,4.57,-1.61,3:52:03,34.219616,-112.946365,1088,0.3,15
66704,24.26,1037.73,0,23.48,-2.64,4.16,0.26,3:52:04,34.219616,-112.946365,1088.1,0.32,15
67705,24.27,1038,0,23.5,-6.2,7.31,1.91,3:52:05,34.219616,-112.946365,1088,0.2,15
68706,24.27,1037.82,63,23.46,-6.22,7.27,1.93,3:52:06,34.21962,-112.946365,1088,0.13,15
69707,24.28,1037.82,72,23.45,-6.25,7.4,1.86,3:52:07,34.21962,-112.946365,1088,0.33,15
70708,24.29,1037.64,78,23.48,-6.27,7.12,2.16,3:52:08,34.21962,-112.946365,1087.9,0.07,15
71709,24.31,1037.73,0,23.47,-6.17,7.11,2.17,3:52:09,34.21962,-112.946365,1088,0.09,15
72710,24.33,1037.91,0,23.48,-6.3,7.02,2.31,3:52:10,34.21962,-112.946365,1088,0.02,15
73711,24.35,1038,0,23.45,-6.39,7.04,2.31,3:52:11,34.21962,-112.946365,1088,0.12,15
74712,24.37,1038.1,0,23.45,-6.39,7.03,2.35,3:52:12,34.219616,-112.946365,1088,0.1,15
75713,24.38,1038.19,0,23.47,-6.39,7.02,2.36,3:52:13,34.219616,-112.946365,1088,0.05,15
76714,24.4,1038.19,0,23.46,-6.39,7.02,2.38,3:52:14,34.21962,-112.946365,1088,0.01,15
77715,24.42,1038.19,0,23.52,-6.39,7,2.39,3:52:15,34.21962,-112.946365,1088,0.01,15
78716,24.44,1038.28,0,23.47,-6.38,7.01,2.39,3:52:16,34.21962,-112.946365,1088,0.01,15
79717,24.46,1038.28,0,23.53,-6.4,7,2.41,3:52:17,34.21962,-112.946365,1088,0.01,15
80718,24.48,1038.28,0,23.47,-6.41,7,2.41,3:52:18,34.21962,-112.946365,1088,0.01,15
81719,24.49,1038.28,0,23.5,-6.39,6.99,2.41,3:52:19,34.21962,-112.946365,1088,0.02,15
82720,24.51,1038.28,0,23.48,-6.4,6.99,2.41,3:52:20,34.21962,-112.946365,1088,0.01,15
83721,24.53,1038.37,0,23.52,-6.39,7,2.42,3:52:21,34.21962,-112.946365,1088,0.01,15
84722,24.55,1038.19,0,23.5,-6.4,6.99,2.41,3:52:22,34.21962,-112.946365,1088,0.01,15
85723,24.57,1038.28,0,23.53,-6.41,6.99,2.43,3:52:23,34.21962,-112.946365,1088,0.01,15
86724,24.58,1038.46,0,23.53,-6.4,6.99,2.42,3:52:24,34.21962,-112.946365,1088,0.01,15
87725,24.6,1038.46,0,23.52,-6.4,6.99,2.43,3:52:25,34.21962,-112.946365,1088,0.01,15
88726,24.62,1038.56,0,23.49,-6.41,6.99,2.44,3:52:26,34.21962,-112.946365,1088,0.02,15
89727,24.64,1038.56,0,23.54,-6.41,6.98,2.43,3:52:27,34.21962,-112.946365,1088,0.02,15
90728,24.66,1038.56,0,23.49,-6.41,6.98,2.43,3:52:28,34.21962,-112.946365,1088,0.01,14
91729,24.68,1038.74,0,23.51,-6.41,6.98,2.44,3:52:29,34.21962,-112.946365,1088,0.01,14
92730,24.69,1038.74,0,23.48,-6.41,6.97,2.43,3:52:30,34.21962,-112.946365,1088,0.02,14
93731,24.71,1038.65,0,23.49,-6.41,6.98,2.44,3:52:31,34.21962,-112.946365,1088,0.02,14
94732,24.73,1038.74,0,23.56,-6.42,6.97,2.44,3:52:32,34.21962,-112.946365,1088,0.02,14
95733,24.75,1038.74,0,23.52,-6.43,6.98,2.42,3:52:33,34.21962,-112.946365,1088,0.01,14
96734,24.77,1038.74,0,23.48,-6.41,6.97,2.45,3:52:34,34.21962,-112.946365,1088,0.01,14
97735,24.79,1038.74,0,23.5,-6.42,6.96,2.45,3:52:35,34.21962,-112.946365,1088,0.01,14
98736,24.8,1038.74,0,23.49,-6.42,6.96,2.46,3:52:36,34.21962,-112.946365,1088,0,14
99737,24.82,1038.65,0,23.48,-6.41,6.97,2.45,3:52:37,34.21962,-112.946365,1088,0.01,15
100738,24.84,1038.65,0,23.49,-6.42,6.96,2.45,3:52:38,34.21962,-112.946365,1088,0.02,15
101739,24.86,1038.65,0,23.51,-6.42,6.96,2.47,3:52:39,34.21962,-112.946365,1088,0.01,15
102740,24.88,1038.92,0,23.54,-6.59,6.66,2.03,3:52:40,34.21962,-112.946365,1088,0,15
103741,24.9,1036.25,88,23.5,-6.47,6.91,2.69,3:52:41,34.21962,-112.946365,1088,0,16
104742,24.95,1034.14,87,23.53,-6.42,6.9,2.5,3:52:42,34.21962,-112.946365,1088,0.06,15
105743,25.04,1035.24,1,23.52,-6.47,6.94,2.51,3:52:43,34.21962,-112.946365,1088,0.06,16
106744,25.13,1036.07,0,23.54,-6.42,6.94,2.56,3:52:44,34.21962,-112.946365,1088,0.08,16
107745,25.19,1034.04,88,23.53,-6.47,6.94,2.52,3:52:45,34.21962,-112.946365,1088,0.1,16
108746,25.25,1032.48,88,23.54,-6.52,6.88,2.24,3:52:46,34.21962,-112.946365,1088,0.1,16
109747,25.35,1031.38,86,23.52,-6.42,6.92,2.52,3:52:47,34.21962,-112.946365,1088,0.02,16
110748,25.47,1030.64,0,23.54,-6.47,6.92,2.56,3:52:48,34.21962,-112.946365,1088,0.03,16
111749,25.56,1032.66,1,23.49,-6.43,6.83,2.6,3:52:49,34.21962,-112.946365,1088,0.07,16
112750,25.6,1032.39,4,23.45,-6.43,6.75,2.77,3:52:50,34.21962,-112.946365,1088,0.03,16
113751,25.63,1033.59,1,23.46,-6.54,6.77,2.84,3:52:51,34.21962,-112.946365,1088,0.05,16
114753,25.65,1034.78,13,23.48,-6.47,6.74,2.9,3:52:52,34.21962,-112.946365,1088,0.01,16
115753,25.67,1033.03,79,23.5,-6.47,6.75,2.91,3:52:53,34.21962,-112.946365,1088,0.01,16
116754,25.74,1034.32,0,23.46,-6.37,6.88,3.07,3:52:54,34.21962,-112.946365,1088,0.03,16
117755,25.81,1035.43,0,23.46,-6.42,6.73,3.13,3:52:55,34.21962,-112.946365,1088,0.02,16
118756,25.84,1036.25,0,23.46,-6.45,6.73,3.03,3:52:56,34.21962,-112.946365,1088,0.33,16
119757,25.86,1036.99,0,23.49,-6.46,6.72,3.01,3:52:57,34.21962,-112.946365,1088,0.33,16
120758,25.87,1037.45,0,23.52,-6.46,6.73,3.01,3:52:58,34.21962,-112.946365,1088,0.15,16
121759,25.88,1037.73,0,23.55,-6.47,6.71,2.96,3:52:59,34.219624,-112.946365,1088,0.03,16
122760,25.89,1038.1,0,23.54,-6.46,6.75,2.99,3:53:00,34.219624,-112.946365,1088,0.02,15
123761,25.9,1038.19,0,23.58,-6.55,6.75,2.86,3:53:01,34.219624,-112.946365,1088,0.05,15
124762,25.91,1038.37,0,23.52,-6.47,6.74,2.99,3:53:02,34.219624,-112.946365,1088,0.02,15
125763,25.92,1038.46,0,23.56,-6.45,6.7,2.99,3:53:03,34.219624,-112.946365,1088,0.03,16
126764,25.93,1038.56,0,23.57,-6.39,6.74,2.95,3:53:04,34.219624,-112.946365,1088,0.01,16
127765,25.95,1038.74,0,23.56,-6.41,6.68,2.9,3:53:05,34.219624,-112.946365,1088,0.01,15
128766,25.96,1038.74,0,23.51,-6.47,6.75,3.11,3:53:06,34.219624,-112.946365,1088,0.06,16
129767,25.97,1038.74,0,23.49,-6.56,6.94,2.89,3:53:07,34.219624,-112.946365,1088,0.24,16
130768,25.99,1038.74,0,23.51,-6.47,6.72,3.1,3:53:08,34.219624,-112.946365,1088,0.2,15
131769,26,1038.74,0,23.54,-6.45,6.68,3.05,3:53:09,34.219624,-112.946365,1088,0.36,15
132770,26.02,1038.74,0,23.48,-6.45,6.7,3.05,3:53:10,34.219624,-112.946365,1088.1,0.36,16
133771,26.03,1038.74,0,23.49,-6.48,6.72,3.07,3:53:11,34.219624,-112.946365,1088.1,0.03,15
134772,26.05,1038.74,0,23.5,-6.59,6.6,3.14,3:53:12,34.21962,-112.946365,1088.1,0.16,15
135773,26.06,1038.74,0,23.5,-6.11,6.21,3.46,3:53:13,34.21962,-112.946365,1088.2,0.06,16
136774,26.08,1038.74,0,23.47,-6.28,6.62,3.23,3:53:14,34.21962,-112.946365,1088.2,0.43,16
137775,26.09,1038.74,0,23.45,-6.6,6.5,3.11,3:53:15,34.21962,-112.946365,1088.2,0.09,16
138776,26.11,1038.74,0,23.5,-6.44,6.48,3.12,3:53:16,34.21962,-112.946365,1088.2,0.09,16
139777,26.12,1038.65,0,23.55,-6.52,6.6,3.4,3:53:17,34.21962,-112.946365,1088.2,0.09,16
140778,26.14,1038.56,0,23.51,-6.58,6.92,3.04,3:53:18,34.21962,-112.946365,1088.2,0.07,15
141779,26.16,1038.65,0,23.48,-6.61,6.49,3.04,3:53:19,34.21962,-112.946365,1088.2,0.18,16
142780,26.17,1038.56,0,23.53,-6.42,6.36,3.05,3:53:20,34.21962,-112.946365,1088.1,0.09,16
143781,26.19,1038.65,0,23.48,-6.46,6.74,3.06,3:53:21,34.21962,-112.946365,1088.1,0.07,16
144782,26.2,1038.74,0,23.54,-6.36,6.46,3.28,3:53:22,34.21962,-112.946365,1088.1,0.02,16
145783,26.22,1038.74,0,23.49,-6.47,6.61,3.13,3:53:23,34.219616,-112.946365,1088.1,0.07,16
146784,26.24,1038.65,0,23.54,-6.49,6.67,3.21,3:53:24,34.21962,-112.946365,1088.1,0.67,16
147785,26.26,1038.65,0,23.49,-6.47,6.8,3.09,3:53:25,34.21962,-112.946365,1088.1,0.66,10
148786,26.28,1038.65,0,23.48,-6.63,6.79,2.94,3:53:26,34.219624,-112.946365,1088.1,0.81,9
149787,26.29,1038.74,0,23.48,-6.56,6.7,3.06,3:53:27,34.21962,-112.946365,1088.1,0.41,10
150788,26.31,1038.65,0,23.49,-6.43,6.59,3.26,3:53:28,34.219616,-112.946365,1088.1,0.37,12
151789,26.33,1039.29,0,23.48,-6.28,5.93,2.64,3:53:29,34.219616,-112.946365,1088.1,0.22,11
152790,26.34,1039.11,0,23.45,-6.59,6.59,3.12,3:53:30,34.219616,-112.946365,1088.2,0.15,15
153791,26.36,1039.02,0,23.47,-6.58,6.27,3.12,3:53:31,34.219616,-112.946365,1088.2,0.09,16
154792,26.38,1038.92,0,23.5,-6.49,6.81,3.27,3:53:32,34.219616,-112.946365,1088.2,0.13,16
155793,26.4,1038.83,0,23.45,-6.44,6.59,3.26,3:53:33,34.219616,-112.946365,1088.2,0.1,16
156794,26.41,1038.83,0,23.51,-6.59,6.49,3.17,3:53:34,34.219616,-112.946358,1088.2,0.03,16
157795,26.43,1038.83,0,23.47,-6.43,6.68,3.16,3:53:35,34.219616,-112.946358,1088.2,0.32,16
158796,26.45,1038.83,0,23.46,-6.59,6.17,2.97,3:53:36,34.219616,-112.946365,1088.2,0.07,16
159797,26.46,1038.83,0,23.48,-6.64,6.53,3.13,3:53:37,34.219616,-112.946365,1088.2,0.12,16
160798,26.48,1038.74,0,23.46,-6.55,6.56,3.23,3:53:38,34.219616,-112.946365,1088.1,0.14,16
161799,26.5,1038.65,0,23.51,-6.59,6.78,3.3,3:53:39,34.219616,-112.946358,1088.2,0.22,16
162800,26.51,1038.74,0,23.48,-6.47,6.4,3.17,3:53:40,34.219616,-112.946358,1088.2,0.16,16
163801,26.53,1038.65,0,23.48,-6.47,6.2,3.08,3:53:41,34.219616,-112.946358,1088.2,0.13,16
164802,26.55,1038.65,0,23.47,-6.57,6.7,3.35,3:53:42,34.219616,-112.946358,1088.2,0.31,16
165803,26.56,1038.65,0,23.46,-6.46,6.43,3.2,3:53:43,34.219612,-112.946358,1088.1,0.17,16
166804,26.58,1038.65,0,23.46,-6.55,6.53,3.3,3:53:44,34.219612,-112.946358,1088,0.13,16
167805,26.59,1038.74,0,23.46,-6.66,6.61,3.16,3:53:45,34.219612,-112.946358,1088,0.06,16
168806,26.61,1038.65,0,23.48,-6.49,6.5,3.13,3:53:46,34.219612,-112.946358,1088,0.02,16
169807,26.62,1038.74,0,23.48,-6.62,6.43,3.14,3:53:47,34.219612,-112.946358,1088,0.02,16
170808,26.64,1038.83,0,23.48,-6.42,6.39,3.13,3:53:48,34.219612,-112.946358,1088,0.01,16
171809,26.65,1038.74,0,23.5,-6.5,6.44,3.22,3:53:49,34.219612,-112.946358,1088,0,16
172810,26.67,1038.65,0,23.48,-6.59,6.77,3.23,3:53:50,34.219612,-112.946358,1088,0.02,16
173811,26.69,1038.74,0,23.46,-6.55,6.39,3.26,3:53:51,34.219612,-112.946358,1088,0.03,16
174812,26.7,1038.74,0,23.47,-6.62,6.56,3.13,3:53:52,34.219612,-112.946358,1088,0.02,16
175813,26.72,1038.74,0,23.46,-6.61,6.28,3.17,3:53:53,34.219612,-112.946358,1088,0.02,16
176814,26.73,1038.83,0,23.54,-6.37,6.63,3.23,3:53:54,34.219612,-112.946358,1088,0.14,16
177815,26.75,1038.74,0,23.52,-6.55,6.75,3.34,3:53:55,34.219612,-112.946358,1088,0.41,13
178816,26.76,1038.74,0,23.54,-6.53,6.52,3.21,3:53:56,34.219612,-112.946358,1088,0.45,10
179817,26.78,1038.74,0,23.5,-6.41,6.62,3.2,3:53:57,34.219612,-112.946358,1088,0.39,15
180818,26.79,1038.83,0,23.48,-6.55,6.78,3.38,3:53:58,34.219612,-112.946358,1088,0.15,15
181819,26.81,1038.83,0,23.47,-6.54,6.51,3.19,3:53:59,34.219608,-112.946358,1088,0.24,15
182820,26.82,1038.83,0,23.5,-6.71,6.57,3.24,3:54:00,34.219612,-112.946358,1088,0.14,15
183821,26.84,1038.83,0,23.47,-6.5,6.54,3.26,3:54:01,34.219608,-112.946358,1088,0.12,15
184822,26.85,1038.83,0,23.47,-6.51,6.7,3.24,3:54:02,34.219608,-112.946358,1088,0.06,15
185823,26.87,1038.83,0,23.47,-6.45,6.49,3.08,3:54:03,34.219608,-112.946358,1088,0.05,15
186824,26.88,1038.92,0,23.48,-6.64,6.61,3.27,3:54:04,34.219608,-112.946358,1088,0.08,15
187825,26.9,1039.02,0,23.49,-6.44,6.52,3.11,3:54:05,34.219608,-112.946358,1088,0.09,16
188826,26.92,1039.02,0,23.48,-6.48,6.58,3.3,3:54:06,34.219608,-112.946358,1087.9,0.05,16
189827,26.93,1039.02,0,23.48,-6.56,6.31,3.25,3:54:07,34.219608,-112.946358,1087.9,0,16
190828,26.95,1039.02,0,23.48,-6.67,6.28,3.24,3:54:08,34.219608,-112.946358,1087.9,0.01,16
191829,26.96,1039.11,0,23.5,-6.6,6.55,3.2,3:54:09,34.219608,-112.946358,1087.8,0.03,16
192830,26.98,1039.11,0,23.48,-6.62,6.82,3.32,3:54:10,34.219608,-112.946358,1087.8,0.01,16
193831,26.99,1039.11,0,23.5,-6.58,6.48,3.19,3:54:11,34.219608,-112.946358,1087.8,0.02,16
194832,27.01,1039.02,0,23.48,-6.46,6.39,3.16,3:54:12,34.219608,-112.946358,1087.7,0.02,16
195833,27.02,1039.11,0,23.5,-6.54,6.68,3.26,3:54:13,34.219608,-112.946358,1087.7,0.13,16
196834,27.04,1039.2,0,23.46,-6.63,6.37,3.15,3:54:14,34.219608,-112.946358,1087.7,0.06,16
197835,27.05,1039.11,0,23.47,-6.7,6.26,3.1,3:54:15,34.219612,-112.946358,1087.7,0.08,16
198836,27.07,1039.02,0,23.5,-6.6,6.42,3.35,3:54:16,34.219612,-112.946358,1087.7,0.18,16
199837,27.08,1039.11,0,23.47,-6.38,6.68,3.35,3:54:17,34.219612,-112.946358,1087.6,0.03,16
200838,27.1,1039.11,0,23.48,-6.52,6.37,3.25,3:54:18,34.219612,-112.946358,1087.7,0.01,16
201839,27.11,1039.11,0,23.47,-6.36,6.53,3.14,3:54:19,34.219612,-112.946358,1087.7,0.01,16
202840,27.12,1039.11,0,23.5,-6.36,6.51,3.24,3:54:20,34.219612,-112.946358,1087.7,0.01,16
203841,27.14,1039.2,0,23.48,-6.56,6.77,3.23,3:54:21,34.219612,-112.946358,1087.7,0.02,16
204842,27.15,1039.2,0,23.48,-6.6,6.5,3.41,3:54:22,34.219612,-112.946358,1087.7,0.02,16
205843,27.16,1039.29,0,23.52,-6.63,6.45,3.16,3:54:23,34.219612,-112.946358,1087.7,0.01,16
206844,27.18,1039.2,0,23.46,-6.31,6.5,3.24,3:54:24,34.219612,-112.946358,1087.7,0.26,16
207845,27.19,1039.2,0,23.47,-6.48,6.56,3.15,3:54:25,34.219612,-112.946358,1087.7,0.59,12
208846,27.21,1039.2,0,23.55,-6.45,6.89,3.44,3:54:26,34.219612,-112.946358,1087.7,0.14,10
209847,27.22,1039.11,0,23.54,-6.41,6.53,3.24,3:54:27,34.219612,-112.946358,1087.7,0.52,14
210848,27.24,1039.11,0,23.49,-6.5,6.62,3.24,3:54:28,34.219612,-112.946358,1087.6,0.44,15
211849,27.25,1039.11,0,23.48,-6.58,6.59,3.3,3:54:29,34.219616,-112.946358,1087.6,0.36,15
212850,27.26,1039.11,0,23.48,-6.6,6.66,3.27,3:54:30,34.219616,-112.946358,1087.6,0.32,16
213851,27.28,1039.11,0,23.52,-6.59,6.53,3.23,3:54:31,34.219616,-112.946358,1087.6,0.18,16
214852,27.29,1039.11,0,23.48,-6.46,6.66,3.13,3:54:32,34.219616,-112.946358,1087.6,0.18,16
215853,27.3,1039.11,0,23.54,-6.65,6.48,3.21,3:54:33,34.219616,-112.946358,1087.6,0.14,16
216854,27.32,1039.11,0,23.53,-6.47,6.52,3.2,3:54:34,34.219616,-112.946365,1087.6,0.05,16
217855,27.33,1039.11,0,23.48,-6.4,6.72,3.2,3:54:35,34.219616,-112.946365,1087.6,0.13,16
218856,27.34,1039.11,0,23.53,-6.67,6.5,3.27,3:54:36,34.219616,-112.946365,1087.6,0.14,16
219857,27.35,1039.11,0,23.48,-6.68,6.63,3.23,3:54:37,34.219616,-112.946358,1087.5,0.09,16
220858,27.37,1039.2,0,23.5,-6.47,6.78,3.4,3:54:38,34.219616,-112.946358,1087.5,0.31,16
221859,27.38,1039.29,0,23.5,-6.37,6.43,3.25,3:54:39,34.219616,-112.946358,1087.6,0.17,16
222860,27.39,1039.39,0,23.54,-6.5,6.63,3.22,3:54:40,34.21962,-112.946358,1087.6,0.09,16
223861,27.41,1039.39,0,23.54,-6.48,6.28,3.22,3:54:41,34.21962,-112.946358,1087.6,0.2,16
224862,27.42,1039.39,0,23.54,-6.5,6.74,3.28,3:54:42,34.21962,-112.946358,1087.6,0.03,16
225863,27.43,1039.48,0,23.5,-6.41,6.41,3.1,3:54:43,34.219616,-112.946358,1087.5,0.14,16
226864,27.45,1039.48,0,23.49,-6.69,6.63,3.36,3:54:44,34.21962,-112.946358,1087.6,0.13,16
227865,27.46,1039.48,0,23.54,-6.5,6.65,3.23,3:54:45,34.21962,-112.946358,1087.6,0.12,16
228866,27.47,1039.39,0,23.51,-6.57,6.52,3.21,3:54:46,34.21962,-112.946358,1087.6,0.05,16
229867,27.48,1039.29,0,23.54,-6.86,6.92,2.93,3:54:47,34.21962,-112.946358,1087.6,0.02,16
230868,27.5,1039.39,0,23.55,-6.44,6.43,3.35,3:54:48,34.21962,-112.946358,1087.6,0.07,16
231869,27.51,1039.29,0,23.59,-6.56,6.58,3.29,3:54:49,34.21962,-112.946358,1087.6,0.01,16
232870,27.52,1039.39,0,23.59,-6.54,6.49,3.16,3:54:50,34.21962,-112.946358,1087.6,0.02,16
233871,27.54,1039.48,0,23.56,-6.44,6.59,3.24,3:54:51,34.21962,-112.946358,1087.6,0.02,16
234872,27.55,1039.48,0,23.57,-6.42,6.52,3.13,3:54:52,34.21962,-112.946358,1087.6,0.01,16
235873,27.56,1039.48,0,23.57,-6.83,6.7,3.18,3:54:53,34.21962,-112.946358,1087.6,0.55,16
236874,27.58,1039.48,0,23.51,-6.69,6.41,3.43,3:54:54,34.21962,-112.946358,1087.6,0.17,16
237875,27.59,1037.64,0,23.59,-6.67,6.38,3.28,3:54:55,34.21962,-112.946365,1087.6,0.14,13
238876,27.6,1038.1,0,23.5,-6.51,6.56,3.5,3:54:56,34.21962,-112.946365,1087.6,0.1,10
239877,27.62,1038.46,0,23.53,-6.54,6.12,3.28,3:54:57,34.21962,-112.946365,1087.6,0.08,15
240878,27.63,1038.65,0,23.55,-6.63,6.6,3.45,3:54:58,34.21962,-112.946365,1087.6,0.18,16
241879,27.64,1038.92,0,23.54,-6.53,6.34,3.35,3:54:59,34.21962,-112.946365,1087.6,0.1,16
242880,27.65,1039.11,0,23.59,-6.97,5.87,3.59,3:55:00,34.21962,-112.946365,1087.6,0.12,16
243881,27.66,1039.11,0,23.62,-6.99,6.29,3.55,3:55:01,34.21962,-112.946365,1087.6,0.36,16
244882,27.68,1039.29,0,23.6,-6.27,6.7,2.72,3:55:02,34.219616,-112.946365,1087.6,0.44,16
245883,27.69,1039.2,0,23.57,-8.11,6.05,3.72,3:55:03,34.219616,-112.946365,1087.6,0.96,16
246884,27.7,1039.29,0,23.51,-6.98,6.55,3.27,3:55:04,34.219608,-112.946365,1087.4,1.31,16
247885,27.71,1039.29,0,23.56,-7.15,5.94,3.51,3:55:05,34.219604,-112.946365,1087.3,1.54,16
248886,27.72,1039.29,0,23.56,-6.26,6.92,2.77,3:55:06,34.219601,-112.946358,1087.2,1.22,16
249887,27.74,1039.2,0,23.55,-6.84,5.41,3.27,3:55:07,34.219597,-112.946358,1087.1,1.25,16
250888,27.75,1039.11,0,23.61,-6.27,6.86,2.93,3:55:08,34.219589,-112.946358,1086.9,1.34,16
251889,27.76,1039.11,0,23.58,-7.84,5.58,3.29,3:55:09,34.219585,-112.946358,1086.8,1.28,16
252890,27.77,1039.02,0,23.6,-7.06,6.24,3.15,3:55:10,34.219582,-112.946358,1086.7,0.84,16
253891,27.78,1039.02,0,23.66,-6.69,6.59,3.36,3:55:11,34.219578,-112.946358,1086.6,0.21,16
254892,27.79,1039.02,0,23.66,-7.25,5.8,3.62,3:55:12,34.219578,-112.946358,1086.6,0.26,16
255893,27.8,1039.11,0,23.64,-6.95,5.18,3.11,3:55:13,34.219578,-112.946358,1086.5,0.78,16
256894,27.81,1039.11,0,23.62,-5.95,6.9,2.73,3:55:14,34.219585,-112.946358,1086.5,1.22,16
257895,27.82,1039.11,0,23.67,-6.66,6.13,4.48,3:55:15,34.219585,-112.946358,1086.5,0.78,16
258896,27.83,1039.02,0,23.61,-5.92,8.34,5.94,3:55:16,34.219585,-112.946358,1086.5,0.14,16
259897,27.84,1039.11,0,23.55,-6,6.29,2.78,3:55:17,34.219585,-112.946358,1086.5,1.15,16
260898,27.85,1039.11,0,23.59,-6.59,6.03,3.03,3:55:18,34.219585,-112.946358,1086.6,0.32,16
261899,27.86,1039.2,0,23.58,-5.88,7.05,3.13,3:55:19,34.219589,-112.946358,1086.5,0.06,16
262900,27.87,1039.2,0,23.53,-6.86,6.35,3.13,3:55:20,34.219585,-112.946358,1086.6,0.46,16
263901,27.88,1039.2,0,23.61,-7.99,5.91,2.39,3:55:21,34.219585,-112.946358,1086.6,0.6,16
264902,27.89,1039.11,0,23.59,-7.32,6.35,2.59,3:55:22,34.219585,-112.946358,1086.6,0.38,16
265903,27.9,1039.11,0,23.59,-7.37,5.51,2.27,3:55:23,34.219582,-112.946358,1086.5,0.35,16
266904,27.91,1039.02,0,23.55,-8.01,5.91,3.5,3:55:24,34.219582,-112.946358,1086.5,0.32,16
267905,27.91,1039.11,0,23.55,-6.91,4.17,2.94,3:55:25,34.219582,-112.946358,1086.5,0.86,16
268906,27.92,1039.2,0,23.5,-6.43,8.08,1.48,3:55:26,34.219578,-112.946365,1086.5,1.37,12
269907,27.93,1039.2,0,23.6,-6.61,5.87,2.67,3:55:27,34.219585,-112.946365,1086.5,0.51,12
270908,27.94,1039.2,0,23.66,-7.04,6.37,2.7,3:55:28,34.219585,-112.946365,1086.6,0.13,13
271909,27.94,1039.2,0,23.62,-7.17,6.09,2.7,3:55:29,34.219585,-112.946365,1086.5,0.32,12
272910,27.95,1039.29,0,23.66,-6.77,5.69,2.95,3:55:30,34.219585,-112.946365,1086.5,0.45,12
273911,27.96,1039.29,0,23.66,-6.89,4.96,3.03,3:55:31,34.219585,-112.946365,1086.5,1.07,13
274912,27.97,1039.29,0,23.58,-6.93,6.04,3.59,3:55:32,34.219582,-112.946365,1086.3,0.89,15
275913,27.98,1039.29,0,23.59,-6.49,7.25,2.92,3:55:33,34.219582,-112.946365,1086.2,0.66,15
276914,27.99,1039.29,0,23.61,-7.41,5.18,3.22,3:55:34,34.219578,-112.946358,1086.2,0.76,15
277915,28,1039.29,0,23.63,-6.74,6.06,3.48,3:55:35,34.219574,-112.946358,1086.1,0.93,15
278916,28.01,1039.2,0,23.61,-7.98,5.51,3.43,3:55:36,34.21957,-112.946358,1086,1.01,15
279917,28.02,1039.2,0,23.6,-7.34,5.87,3.14,3:55:37,34.21957,-112.946358,1085.9,0.98,15
280918,28.03,1039.11,0,23.61,-8.1,5.8,2.23,3:55:38,34.219566,-112.946358,1085.8,1,16
281919,28.04,1039.11,0,23.55,-8.03,6.01,2.32,3:55:39,34.219566,-112.946342,1085.8,0.94,16
282920,28.05,1038.92,0,23.57,-8.04,5.76,3.07,3:55:40,34.219559,-112.946342,1085.6,1.15,16
283921,28.06,1038.92,0,23.61,-5.55,5.92,3.31,3:55:41,34.219555,-112.946327,1085.6,1.35,16
284922,28.07,1038.92,0,23.59,-4.97,6.49,3,3:55:42,34.219547,-112.946327,1085.5,1.59,16
285923,28.08,1038.83,0,23.63,-6.22,6.02,2.83,3:55:43,34.219543,-112.946327,1085.4,1.88,16
286924,28.09,1038.65,0,23.61,-7.48,7.04,3.79,3:55:44,34.219536,-112.94632,1085.3,1.95,16
287925,28.09,1038.56,0,23.59,-7.03,6.57,3.9,3:55:45,34.219532,-112.94632,1085.3,1.99,16
288926,28.1,1038.37,0,23.58,-6.72,6.01,3.65,3:55:46,34.219528,-112.946304,1085.2,1.45,16
289927,28.11,1038.28,0,23.6,-6.86,6.05,3.84,3:55:47,34.219528,-112.946304,1085.1,1.53,16
290928,28.12,1038.19,0,23.58,-6.2,6.28,3.38,3:55:48,34.219524,-112.946304,1085,1.27,16
291929,28.13,1038,0,23.63,-8.15,6.31,3.9,3:55:49,34.219521,-112.946289,1084.9,1.28,16
292930,28.14,1037.91,0,23.61,-7.23,6.08,2.96,3:55:50,34.219513,-112.946289,1084.9,1.47,16
293931,28.15,1037.73,0,23.58,-6.38,6.55,2.56,3:55:51,34.219509,-112.946289,1084.8,1.45,16
294932,28.16,1037.73,0,23.61,-6.42,6.45,2.83,3:55:52,34.219505,-112.946281,1084.7,1.44,16
295933,28.17,1037.64,0,23.57,-6.47,5.87,3.52,3:55:53,34.219501,-112.946281,1084.6,1.15,16
296934,28.17,1037.54,0,23.59,-7.02,6,4.39,3:55:54,34.219498,-112.946281,1084.5,1.42,16
297935,28.18,1037.45,0,23.59,-6.47,6.7,2.84,3:55:55,34.21949,-112.946281,1084.4,1.4,16
298936,28.19,1037.36,0,23.56,-5.76,5.72,4.72,3:55:56,34.219486,-112.946266,1084.3,1.39,14
299937,28.2,1037.18,0,23.6,-6.31,6.3,3.15,3:55:57,34.219482,-112.946266,1084.2,1.46,13
time_since_start,bme_temp,bme_alt,uv,ism_temp,acc_x,acc_y,acc_z,gps_time,latitude,longitude,gps_alt,speed,sats
