time_since_start,bme_temp,bme_alt,uv,ism_temp,acc_x,acc_y,acc_z,gps_time,latitude,longitude,gps_alt,speed,sats
1802968,25.46,420.09,33,31.19,-8.59,4.55,-0.61,11:1:34,33.664635N,-114.007439W,484.30,0.25,18
1803969,25.44,420.00,34,31.23,-8.59,4.55,-0.62,11:1:35,33.664635N,-114.007439W,484.30,0.08,18
1804970,25.43,420.00,34,31.22,-8.59,4.56,-0.61,11:1:36,33.664635N,-114.007439W,484.30,0.10,18
1805971,25.42,420.00,34,31.19,-8.59,4.56,-0.62,11:1:37,33.664635N,-114.007439W,484.30,0.06,18
1806972,25.42,420.09,34,31.24,-8.59,4.55,-0.62,11:1:38,33.664635N,-114.007439W,484.30,0.06,18
1807973,25.41,420.09,34,31.26,-8.59,4.54,-0.62,11:1:39,33.664635N,-114.007439W,484.30,0.13,18
1808974,25.40,420.17,34,31.23,-8.59,4.55,-0.62,11:1:40,33.664635N,-114.007439W,484.30,0.13,18
1809975,25.38,420.17,34,31.21,-8.59,4.56,-0.61,11:1:41,33.664635N,-114.007439W,484.30,0.07,18
1810976,25.37,420.09,34,31.23,-8.59,4.56,-0.62,11:1:42,33.664635N,-114.007439W,484.30,0.10,18
1811977,25.35,420.00,34,31.29,-8.59,4.56,-0.62,11:1:43,33.664635N,-114.007439W,484.30,0.05,18
1812978,25.32,420.00,34,31.23,-8.58,4.55,-0.61,11:1:44,33.664635N,-114.007439W,484.30,0.05,18
1813979,25.29,420.09,34,31.26,-8.59,4.56,-0.61,11:1:45,33.664635N,-114.007439W,484.30,0.14,18
1814980,25.27,420.09,34,31.23,-8.60,4.55,-0.62,11:1:46,33.664635N,-114.007439W,484.30,0.22,18
1815981,25.25,420.09,34,31.25,-8.58,4.54,-0.62,11:1:47,33.664635N,-114.007439W,484.30,0.08,18
1816982,25.24,420.09,35,31.27,-8.59,4.55,-0.61,11:1:48,33.664635N,-114.007439W,484.30,0.08,18
1817983,25.23,420.17,34,31.29,-8.59,4.55,-0.62,11:1:49,33.664635N,-114.007439W,484.30,0.06,18
1818984,25.23,420.17,34,31.30,-8.58,4.55,-0.61,11:1:50,33.664635N,-114.007439W,484.30,0.08,18
1819985,25.22,420.09,34,31.27,-8.59,4.55,-0.61,11:1:51,33.664635N,-114.007439W,484.30,0.07,18
1820986,25.22,420.09,34,31.29,-8.58,4.56,-0.62,11:1:52,33.664635N,-114.007439W,484.30,0.14,18
1821987,25.21,420.09,34,31.29,-8.59,4.55,-0.62,11:1:53,33.664635N,-114.007439W,484.30,0.06,18
1822988,25.21,420.00,35,31.27,-8.58,4.55,-0.62,11:1:54,33.664635N,-114.007439W,484.30,0.09,18
1823989,25.21,420.00,34,31.22,-8.59,4.56,-0.62,11:1:55,33.664635N,-114.007439W,484.30,0.05,18
1824990,25.20,420.00,34,31.27,-8.59,4.56,-0.61,11:1:56,33.664635N,-114.007439W,484.30,0.02,18
1825991,25.19,419.91,34,31.32,-8.59,4.57,-0.62,11:1:57,33.664635N,-114.007439W,484.30,0.09,18
1826992,25.18,420.00,34,31.24,-8.59,4.55,-0.61,11:1:58,33.664635N,-114.007439W,484.30,0.13,18
1827993,25.14,420.00,34,31.26,-8.59,4.54,-0.63,11:1:59,33.664635N,-114.007439W,484.30,0.09,18
1828994,25.12,420.00,34,31.27,-8.59,4.55,-0.61,11:2:0,33.664635N,-114.007439W,484.30,0.06,18
1829995,25.11,420.09,34,31.29,-8.59,4.55,-0.63,11:2:1,33.664635N,-114.007439W,484.30,0.08,18
1830996,25.10,420.09,34,31.28,-8.59,4.55,-0.62,11:2:2,33.664635N,-114.007439W,484.30,0.17,18
1831997,25.09,420.09,34,31.29,-8.58,4.56,-0.62,11:2:3,33.664635N,-114.007439W,484.40,0.32,18
1832998,25.09,420.09,35,31.30,-8.59,4.55,-0.61,11:2:4,33.664635N,-114.007439W,484.40,0.22,18
1833999,25.08,420.09,34,31.28,-8.60,4.55,-0.62,11:2:5,33.664635N,-114.007439W,484.30,0.14,18
1835000,25.06,420.17,34,31.28,-8.59,4.56,-0.60,11:2:6,33.664635N,-114.007439W,484.30,0.09,18
1836001,25.05,420.17,34,31.33,-8.59,4.54,-0.62,11:2:7,33.664635N,-114.007439W,484.30,0.02,18
1837002,25.03,420.17,34,31.30,-8.59,4.57,-0.62,11:2:8,33.664635N,-114.007439W,484.30,0.12,18
1838003,25.03,420.26,34,31.30,-8.59,4.54,-0.62,11:2:9,33.664635N,-114.007439W,484.30,0.03,18
1839004,25.03,420.26,34,31.34,-8.59,4.56,-0.61,11:2:10,33.664635N,-114.007439W,484.30,0.12,18
1840005,25.02,420.35,34,31.31,-8.58,4.55,-0.63,11:2:11,33.664635N,-114.007439W,484.30,0.09,18
1841006,24.99,420.35,34,31.30,-8.60,4.55,-0.62,11:2:12,33.664635N,-114.007439W,484.30,0.08,18
1842007,24.98,420.35,34,31.36,-8.59,4.55,-0.61,11:2:13,33.664635N,-114.007439W,484.30,0.06,18
1843008,24.97,420.35,34,31.30,-8.59,4.56,-0.61,11:2:14,33.664631N,-114.007439W,484.30,0.09,18
1844009,24.98,420.26,34,31.31,-8.58,4.57,-0.61,11:2:15,33.664631N,-114.007439W,484.30,0.15,18
1845010,24.98,420.26,34,31.31,-8.58,4.56,-0.62,11:2:16,33.664631N,-114.007439W,484.30,0.08,18
1846011,24.97,420.35,34,31.30,-8.59,4.55,-0.62,11:2:17,33.664631N,-114.007439W,484.40,0.15,18
1847012,24.96,420.35,34,31.32,-8.59,4.56,-0.61,11:2:18,33.664631N,-114.007439W,484.40,0.09,18
1848013,24.96,420.35,35,31.40,-8.58,4.55,-0.61,11:2:19,33.664631N,-114.007439W,484.30,0.02,18
1849014,24.97,420.35,34,31.33,-8.59,4.54,-0.62,11:2:20,33.664631N,-114.007439W,484.30,0.13,18
1850015,24.96,420.26,35,31.36,-8.58,4.54,-0.61,11:2:21,33.664631N,-114.007439W,484.30,0.09,18
1851016,24.94,420.26,34,31.38,-8.59,4.55,-0.61,11:2:22,33.664631N,-114.007439W,484.30,0.16,18
1852017,24.91,420.35,34,31.32,-8.59,4.55,-0.61,11:2:23,33.664631N,-114.007439W,484.40,0.07,18
1853018,24.90,420.35,34,31.34,-8.59,4.56,-0.63,11:2:24,33.664631N,-114.007439W,484.40,0.07,18
1854019,24.90,420.35,34,31.36,-8.58,4.54,-0.62,11:2:25,33.664631N,-114.007439W,484.40,0.02,18
1855020,24.89,420.35,34,31.34,-8.59,4.55,-0.62,11:2:26,33.664631N,-114.007439W,484.40,0.09,18
1856021,24.88,420.26,35,31.33,-8.59,4.55,-0.61,11:2:27,33.664631N,-114.007439W,484.40,0.08,18
1857022,24.87,420.35,34,31.40,-8.59,4.55,-0.61,11:2:28,33.664631N,-114.007439W,484.40,0.03,18
1858023,24.87,420.17,34,31.36,-8.59,4.55,-0.62,11:2:29,33.664631N,-114.007439W,484.40,0.07,18
1859024,24.87,420.26,34,31.40,-8.59,4.55,-0.62,11:2:30,33.664631N,-114.007439W,484.40,0.08,18
1860025,24.87,420.26,34,31.35,-8.58,4.55,-0.62,11:2:31,33.664631N,-114.007439W,484.40,0.10,18
1861026,24.87,420.26,34,31.36,-8.59,4.55,-0.62,11:2:32,33.664631N,-114.007439W,484.40,0.07,18
1862027,24.88,420.26,34,31.39,-8.58,4.54,-0.61,11:2:33,33.664631N,-114.007439W,484.50,0.20,18
1863028,24.89,420.35,34,31.41,-8.60,4.55,-0.62,11:2:34,33.664631N,-114.007439W,484.40,0.14,18
1864029,24.90,420.35,34,31.40,-8.59,4.55,-0.62,11:2:35,33.664631N,-114.007439W,484.40,0.10,18
1865030,24.91,420.43,35,31.40,-8.58,4.55,-0.61,11:2:36,33.664631N,-114.007439W,484.40,0.10,18
1866031,24.91,420.43,34,31.41,-8.59,4.55,-0.61,11:2:37,33.664631N,-114.007439W,484.40,0.07,18
1867032,24.91,420.35,34,31.38,-8.58,4.55,-0.62,11:2:38,33.664627N,-114.007439W,484.40,0.14,18
1868033,24.92,420.35,34,31.40,-8.58,4.55,-0.62,11:2:39,33.664627N,-114.007439W,484.40,0.16,18
1869034,24.93,420.35,34,31.35,-8.59,4.56,-0.61,11:2:40,33.664627N,-114.007439W,484.40,0.08,18
1870035,24.95,420.35,34,31.35,-8.59,4.55,-0.62,11:2:41,33.664627N,-114.007439W,484.50,0.09,18
1871036,24.96,420.35,33,31.40,-8.59,4.56,-0.62,11:2:42,33.664627N,-114.007439W,484.50,0.08,18
1872037,24.98,420.35,34,31.41,-8.59,4.56,-0.62,11:2:43,33.664627N,-114.007439W,484.50,0.06,18
1873038,24.99,420.35,34,31.40,-8.58,4.55,-0.61,11:2:44,33.664627N,-114.007439W,484.50,0.12,18
1874039,25.00,420.26,34,31.39,-8.59,4.55,-0.62,11:2:45,33.664627N,-114.007439W,484.50,0.03,18
1875040,25.02,420.26,34,31.41,-8.60,4.55,-0.62,11:2:46,33.664627N,-114.007439W,484.50,0.16,18
1876041,25.03,420.35,34,31.36,-8.59,4.55,-0.62,11:2:47,33.664627N,-114.007439W,484.50,0.07,18
1877042,25.04,420.35,34,31.40,-8.59,4.55,-0.62,11:2:48,33.664627N,-114.007439W,484.60,0.16,18
1878043,25.04,420.35,34,31.39,-8.58,4.55,-0.61,11:2:49,33.664627N,-114.007439W,484.50,0.30,18
1879044,25.05,420.35,34,31.44,-8.58,4.56,-0.62,11:2:50,33.664627N,-114.007439W,484.50,0.06,18
1880045,25.07,420.26,34,31.41,-8.58,4.54,-0.62,11:2:51,33.664627N,-114.007439W,484.50,0.07,18
1881046,25.08,420.26,34,31.40,-8.58,4.55,-0.60,11:2:52,33.664627N,-114.007439W,484.50,0.07,18
1882047,25.09,420.17,34,31.41,-8.59,4.55,-0.62,11:2:53,33.664627N,-114.007439W,484.50,0.07,18
1883048,25.11,420.17,34,31.42,-8.59,4.55,-0.63,11:2:54,33.664627N,-114.007439W,484.50,0.12,18
1884049,25.12,420.17,34,31.39,-8.59,4.55,-0.61,11:2:55,33.664627N,-114.007439W,484.50,0.15,18
1885050,25.14,420.17,34,31.41,-8.58,4.55,-0.62,11:2:56,33.664627N,-114.007439W,484.50,0.10,18
1886051,25.15,420.09,34,31.42,-8.59,4.56,-0.62,11:2:57,33.664627N,-114.007439W,484.50,0.08,18
1887052,25.15,420.17,34,31.44,-8.59,4.56,-0.62,11:2:58,33.664627N,-114.007439W,484.50,0.01,17
1888053,25.16,420.09,33,31.41,-8.60,4.55,-0.61,11:2:59,33.664627N,-114.007439W,484.50,0.13,17
1889054,25.18,420.26,34,31.44,-8.60,4.55,-0.61,11:3:0,33.664627N,-114.007439W,484.50,0.09,17
1890055,25.19,420.26,34,31.43,-8.59,4.55,-0.61,11:3:1,33.664627N,-114.007439W,484.40,0.13,17
1891056,25.20,420.17,34,31.46,-8.59,4.55,-0.62,11:3:2,33.664627N,-114.007439W,484.50,0.03,17
1892057,25.21,420.17,34,31.44,-8.59,4.55,-0.62,11:3:3,33.664627N,-114.007439W,484.50,0.21,17
1893058,25.23,420.17,34,31.43,-8.59,4.56,-0.62,11:3:4,33.664627N,-114.007439W,484.50,0.06,17
1894059,25.25,420.17,34,31.43,-8.58,4.55,-0.62,11:3:5,33.664627N,-114.007439W,484.50,0.05,18
1895060,25.27,420.17,34,31.44,-8.59,4.55,-0.61,11:3:6,33.664627N,-114.007439W,484.50,0.13,18
1896061,25.28,420.09,34,31.47,-8.58,4.55,-0.61,11:3:7,33.664627N,-114.007439W,484.40,0.21,18
1897062,25.29,420.09,34,31.44,-8.60,4.54,-0.61,11:3:8,33.664627N,-114.007439W,484.50,0.14,18
1898063,25.30,420.09,33,31.46,-8.58,4.55,-0.62,11:3:9,33.664627N,-114.007439W,484.50,0.05,18
1899064,25.30,420.09,33,31.45,-8.59,4.55,-0.61,11:3:10,33.664627N,-114.007439W,484.50,0.09,18
1900065,25.28,420.09,34,31.45,-8.59,4.56,-0.62,11:3:11,33.664627N,-114.007439W,484.50,0.10,18
1901066,25.26,420.09,34,31.44,-8.59,4.56,-0.62,11:3:12,33.664627N,-114.007439W,484.50,0.14,18
1902067,25.25,420.17,34,31.43,-8.58,4.55,-0.62,11:3:13,33.664627N,-114.007439W,484.50,0.10,18
1903068,25.25,420.17,34,31.43,-8.60,4.55,-0.61,11:3:14,33.664627N,-114.007439W,484.50,0.03,18
1904069,25.25,420.26,34,31.45,-8.58,4.55,-0.61,11:3:15,33.664627N,-114.007439W,484.50,0.07,18
1905070,25.25,420.26,34,31.45,-8.59,4.55,-0.61,11:3:16,33.664627N,-114.007439W,484.40,0.17,18
1906071,25.27,420.26,34,31.46,-8.59,4.55,-0.62,11:3:17,33.664627N,-114.007439W,484.50,0.10,18
1907072,25.28,420.26,34,31.44,-8.60,4.54,-0.61,11:3:18,33.664627N,-114.007439W,484.50,0.15,18
1908073,25.28,420.35,34,31.45,-8.59,4.55,-0.62,11:3:19,33.664627N,-114.007439W,484.50,0.07,18
1909074,25.29,420.35,34,31.47,-8.59,4.56,-0.62,11:3:20,33.664627N,-114.007439W,484.50,0.03,18
1910075,25.29,420.35,34,31.46,-8.59,4.55,-0.62,11:3:21,33.664627N,-114.007439W,484.50,0.03,18
1911076,25.29,420.35,34,31.48,-8.59,4.55,-0.61,11:3:22,33.664627N,-114.007439W,484.50,0.16,18
1912077,25.28,420.26,34,31.48,-8.60,4.55,-0.62,11:3:23,33.664627N,-114.007439W,484.50,0.03,18
1913078,25.27,420.26,35,31.47,-8.59,4.55,-0.61,11:3:24,33.664627N,-114.007439W,484.50,0.16,18
1914079,25.27,420.26,34,31.47,-8.60,4.54,-0.62,11:3:25,33.664627N,-114.007439W,484.50,0.02,18
1915080,25.26,420.17,33,31.47,-8.58,4.55,-0.61,11:3:26,33.664627N,-114.007439W,484.50,0.14,18
1916081,25.27,420.17,34,31.48,-8.60,4.55,-0.62,11:3:27,33.664627N,-114.007439W,484.50,0.13,18
1917082,25.28,420.17,33,31.48,-8.59,4.55,-0.61,11:3:28,33.664623N,-114.007439W,484.50,0.06,18
1918083,25.29,420.17,34,31.48,-8.60,4.56,-0.62,11:3:29,33.664623N,-114.007439W,484.50,0.17,18
1919084,25.29,420.26,34,31.47,-8.60,4.56,-0.62,11:3:30,33.664623N,-114.007439W,484.50,0.12,18
1920085,25.29,420.26,34,31.45,-8.59,4.55,-0.61,11:3:31,33.664623N,-114.007439W,484.50,0.06,18
1921086,25.29,420.26,34,31.49,-8.59,4.55,-0.61,11:3:32,33.664623N,-114.007439W,484.50,0.10,18
1922087,25.29,420.26,33,31.52,-8.60,4.55,-0.61,11:3:33,33.664623N,-114.007439W,484.50,0.08,18
1923088,25.29,420.26,33,31.52,-8.58,4.56,-0.62,11:3:34,33.664623N,-114.007439W,484.50,0.13,18
1924089,25.29,420.26,34,31.48,-8.58,4.54,-0.61,11:3:35,33.664623N,-114.007439W,484.50,0.15,18
1925090,25.30,420.26,33,31.48,-8.59,4.56,-0.63,11:3:36,33.664623N,-114.007439W,484.50,0.18,18
1926091,25.31,420.17,34,31.45,-8.58,4.54,-0.62,11:3:37,33.664623N,-114.007439W,484.50,0.10,18
1927092,25.31,420.26,34,31.54,-8.59,4.55,-0.62,11:3:38,33.664623N,-114.007439W,484.50,0.09,18
1928093,25.32,420.26,33,31.50,-8.58,4.55,-0.61,11:3:39,33.664623N,-114.007439W,484.50,0.12,18
1929094,25.32,420.17,33,31.53,-8.58,4.55,-0.62,11:3:40,33.664623N,-114.007439W,484.50,0.09,18
1930095,25.33,420.09,33,31.53,-8.59,4.56,-0.62,11:3:41,33.664623N,-114.007439W,484.50,0.01,18
1931096,25.34,420.09,33,31.54,-8.59,4.55,-0.61,11:3:42,33.664623N,-114.007439W,484.50,0.07,18
1932097,25.33,420.00,33,31.53,-8.58,4.56,-0.62,11:3:43,33.664623N,-114.007439W,484.50,0.09,18
1933098,25.32,419.91,31,31.52,-8.60,4.56,-0.61,11:3:44,33.664623N,-114.007439W,484.50,0.05,18
1934099,25.30,420.00,31,31.49,-8.58,4.54,-0.62,11:3:45,33.664623N,-114.007439W,484.50,0.10,18
1935100,25.28,420.00,33,31.53,-8.59,4.55,-0.63,11:3:46,33.664623N,-114.007439W,484.50,0.16,18
1936101,25.26,420.00,33,31.53,-8.59,4.55,-0.61,11:3:47,33.664623N,-114.007439W,484.60,0.20,18
1937102,25.26,420.00,33,31.54,-8.60,4.56,-0.61,11:3:48,33.664623N,-114.007439W,484.70,0.17,18
1938103,25.26,419.91,34,31.56,-8.59,4.55,-0.62,11:3:49,33.664623N,-114.007439W,484.60,0.13,18
1939104,25.27,420.09,34,31.57,-8.59,4.56,-0.61,11:3:50,33.664623N,-114.007439W,484.70,0.08,18
1940105,25.28,420.09,34,31.52,-8.59,4.55,-0.62,11:3:51,33.664623N,-114.007439W,484.60,0.06,18
1941106,25.29,420.00,33,31.54,-8.59,4.54,-0.62,11:3:52,33.664623N,-114.007439W,484.60,0.15,18
1942107,25.29,420.09,33,31.55,-8.59,4.55,-0.63,11:3:53,33.664623N,-114.007439W,484.70,0.06,18
1943108,25.30,420.17,34,31.54,-8.59,4.55,-0.61,11:3:54,33.664623N,-114.007439W,484.70,0.13,18
1944109,25.30,420.17,33,31.52,-8.60,4.54,-0.63,11:3:55,33.664623N,-114.007439W,484.70,0.06,18
1945110,25.30,420.35,34,31.54,-8.59,4.55,-0.61,11:3:56,33.664623N,-114.007439W,484.70,0.06,18
1946111,25.31,420.35,34,31.53,-8.59,4.55,-0.61,11:3:57,33.664623N,-114.007439W,484.70,0.03,18
1947112,25.31,420.35,34,31.55,-8.59,4.55,-0.62,11:3:58,33.664623N,-114.007439W,484.70,0.09,18
1948113,25.31,420.35,34,31.55,-8.59,4.55,-0.61,11:3:59,33.664623N,-114.007439W,484.70,0.10,18
1949114,25.29,420.35,35,31.55,-8.59,4.56,-0.62,11:4:0,33.664623N,-114.007439W,484.70,0.10,18
1950115,25.27,420.35,34,31.56,-8.58,4.56,-0.61,11:4:1,33.664623N,-114.007439W,484.70,0.14,18
1951116,25.26,420.26,35,31.57,-8.58,4.56,-0.60,11:4:2,33.664623N,-114.007439W,484.70,0.02,18
1952117,25.25,420.17,35,31.50,-8.60,4.55,-0.62,11:4:3,33.664623N,-114.007439W,484.80,0.09,18
1953118,25.24,420.26,34,31.55,-8.59,4.55,-0.62,11:4:4,33.664623N,-114.007439W,484.80,0.14,18
1954119,25.23,420.35,34,31.58,-8.59,4.55,-0.61,11:4:5,33.664623N,-114.007439W,484.80,0.15,18
1955120,25.23,420.52,34,31.59,-8.59,4.55,-0.62,11:4:6,33.664623N,-114.007439W,484.80,0.06,18
1956121,25.22,420.61,35,31.59,-8.58,4.56,-0.62,11:4:7,33.664623N,-114.007439W,484.80,0.05,18
1957122,25.23,420.52,34,31.56,-8.60,4.55,-0.61,11:4:8,33.664623N,-114.007439W,484.80,0.08,18
1958123,25.23,420.61,34,31.65,-8.58,4.55,-0.62,11:4:9,33.664623N,-114.007439W,484.80,0.14,18
1959124,25.23,420.52,34,31.57,-8.58,4.56,-0.62,11:4:10,33.664623N,-114.007439W,484.90,0.17,18
1960125,25.23,420.61,34,31.62,-8.59,4.55,-0.62,11:4:11,33.664623N,-114.007439W,484.90,0.06,18
1961126,25.23,420.52,34,31.57,-8.59,4.55,-0.61,11:4:12,33.664623N,-114.007439W,484.90,0.06,18
1962127,25.24,420.52,34,31.58,-8.59,4.55,-0.62,11:4:13,33.664623N,-114.007439W,484.80,0.09,18
1963128,25.26,420.43,35,31.58,-8.59,4.56,-0.61,11:4:14,33.664623N,-114.007439W,484.80,0.07,18
1964129,25.27,420.43,34,31.60,-8.58,4.55,-0.63,11:4:15,33.664623N,-114.007439W,484.80,0.03,18
1965130,25.28,420.43,34,31.62,-8.59,4.55,-0.61,11:4:16,33.664623N,-114.007439W,484.80,0.18,18
1966131,25.28,420.52,35,31.63,-8.59,4.56,-0.62,11:4:17,33.664623N,-114.007439W,484.90,0.28,18
1967132,25.27,420.52,35,31.61,-8.60,4.55,-0.63,11:4:18,33.664623N,-114.007439W,484.90,0.05,18
1968133,25.27,420.61,35,31.61,-8.59,4.55,-0.64,11:4:19,33.664623N,-114.007439W,484.80,0.05,18
1969134,25.28,420.52,34,31.61,-8.59,4.55,-0.61,11:4:20,33.664623N,-114.007439W,484.80,0.21,18
1970135,25.29,420.52,34,31.58,-8.58,4.56,-0.61,11:4:21,33.664623N,-114.007439W,484.80,0.12,18
1971136,25.28,420.52,35,31.61,-8.59,4.55,-0.62,11:4:22,33.664623N,-114.007439W,484.80,0.02,18
1972137,25.29,420.61,35,31.61,-8.59,4.55,-0.63,11:4:23,33.664623N,-114.007439W,484.80,0.16,18
1973138,25.30,420.52,35,31.59,-8.59,4.55,-0.61,11:4:24,33.664623N,-114.007439W,484.80,0.10,18
1974139,25.31,420.52,35,31.61,-8.60,4.55,-0.63,11:4:25,33.664619N,-114.007439W,484.90,0.14,18
1975140,25.32,420.69,35,31.57,-8.59,4.55,-0.62,11:4:26,33.664619N,-114.007439W,484.90,0.06,18
1976141,25.33,420.69,34,31.65,-8.59,4.55,-0.63,11:4:27,33.664619N,-114.007439W,484.90,0.08,18
1977142,25.33,420.69,34,31.61,-8.58,4.56,-0.61,11:4:28,33.664623N,-114.007439W,484.90,0.08,18
1978143,25.32,420.61,34,31.64,-8.59,4.56,-0.62,11:4:29,33.664623N,-114.007439W,484.90,0.03,18
1979144,25.31,420.69,34,31.65,-8.58,4.56,-0.61,11:4:30,33.664623N,-114.007439W,484.90,0.06,18
1980145,25.30,420.69,34,31.65,-8.59,4.55,-0.61,11:4:31,33.664623N,-114.007439W,484.90,0.20,17
1981146,25.31,420.69,34,31.61,-8.58,4.56,-0.61,11:4:32,33.664623N,-114.007439W,484.90,0.21,17
1982147,25.31,420.61,34,31.65,-8.59,4.56,-0.62,11:4:33,33.664623N,-114.007439W,485.10,0.18,17
1983148,25.31,420.61,35,31.63,-8.59,4.54,-0.61,11:4:34,33.664623N,-114.007439W,485.00,0.18,17
1984149,25.32,420.61,34,31.65,-8.60,4.54,-0.62,11:4:35,33.664623N,-114.007439W,484.90,0.14,17
1985150,25.32,420.69,34,31.61,-8.59,4.55,-0.62,11:4:36,33.664623N,-114.007439W,484.90,0.07,17
1986151,25.33,420.61,34,31.66,-8.59,4.55,-0.61,11:4:37,33.664623N,-114.007439W,484.90,0.03,17
1987152,25.33,420.52,35,31.66,-8.59,4.55,-0.62,11:4:38,33.664623N,-114.007439W,484.90,0.10,17
1988153,25.33,420.52,34,31.64,-8.58,4.56,-0.62,11:4:39,33.664623N,-114.007439W,484.90,0.03,17
1989154,25.33,420.61,35,31.66,-8.59,4.54,-0.62,11:4:40,33.664623N,-114.007439W,484.90,0.10,18
1990155,25.34,420.52,34,31.64,-8.58,4.55,-0.62,11:4:41,33.664623N,-114.007439W,484.90,0.08,18
1991156,25.34,420.52,34,31.64,-8.59,4.55,-0.62,11:4:42,33.664623N,-114.007439W,484.90,0.05,17
1992157,25.34,420.43,33,31.66,-8.59,4.55,-0.63,11:4:43,33.664623N,-114.007439W,484.90,0.08,18
1993158,25.34,420.43,34,31.70,-8.59,4.56,-0.61,11:4:44,33.664623N,-114.007439W,484.90,0.10,18
1994159,25.33,420.52,34,31.67,-8.59,4.55,-0.62,11:4:45,33.664623N,-114.007439W,484.90,0.08,18
1995160,25.34,420.43,34,31.69,-8.58,4.55,-0.62,11:4:46,33.664623N,-114.007439W,484.90,0.08,18
1996161,25.34,420.43,34,31.65,-8.58,4.55,-0.61,11:4:47,33.664623N,-114.007439W,485.00,0.18,18
1997162,25.34,420.43,34,31.68,-8.60,4.55,-0.63,11:4:48,33.664623N,-114.007439W,484.90,0.14,18
1998163,25.33,420.43,35,31.71,-8.59,4.54,-0.62,11:4:49,33.664623N,-114.007439W,484.90,0.09,18
1999164,25.31,420.35,35,31.68,-8.59,4.56,-0.63,11:4:50,33.664623N,-114.007439W,484.90,0.16,18
2000165,25.31,420.43,34,31.67,-8.59,4.55,-0.62,11:4:51,33.664623N,-114.007439W,484.90,0.21,18
2001166,25.32,420.35,34,31.69,-8.59,4.55,-0.61,11:4:52,33.664623N,-114.007439W,484.90,0.10,18
2002167,25.31,420.35,34,31.65,-8.59,4.55,-0.62,11:4:53,33.664619N,-114.007439W,484.90,0.09,18
2003168,25.31,420.35,34,31.68,-8.59,4.55,-0.62,11:4:54,33.664619N,-114.007439W,484.90,0.02,18
2004169,25.32,420.43,34,31.66,-8.59,4.56,-0.63,11:4:55,33.664619N,-114.007439W,484.90,0.21,18
2005170,25.33,420.43,34,31.70,-8.58,4.55,-0.61,11:4:56,33.664619N,-114.007439W,484.90,0.09,18
2006171,25.33,420.43,34,31.70,-8.59,4.55,-0.61,11:4:57,33.664619N,-114.007439W,484.90,0.08,18
2007172,25.34,420.43,35,31.65,-8.59,4.56,-0.62,11:4:58,33.664619N,-114.007439W,484.90,0.09,18
2008173,25.34,420.43,34,31.68,-8.60,4.54,-0.62,11:4:59,33.664619N,-114.007439W,485.00,0.06,18
2009174,25.35,420.43,34,31.66,-8.59,4.55,-0.62,11:5:0,33.664619N,-114.007439W,484.90,0.03,18
2010175,25.36,420.52,34,31.70,-8.59,4.55,-0.62,11:5:1,33.664619N,-114.007439W,484.90,0.07,18
2011176,25.37,420.52,35,31.71,-8.59,4.55,-0.62,11:5:2,33.664619N,-114.007439W,485.00,0.29,18
2012177,25.38,420.52,34,31.66,-8.59,4.56,-0.62,11:5:3,33.664619N,-114.007439W,485.00,0.24,18
2013178,25.38,420.52,34,31.69,-8.59,4.55,-0.62,11:5:4,33.664619N,-114.007439W,485.00,0.02,18
2014179,25.38,420.52,34,31.71,-8.59,4.56,-0.61,11:5:5,33.664619N,-114.007439W,485.00,0.03,18
2015180,25.38,420.52,34,31.67,-8.60,4.54,-0.63,11:5:6,33.664619N,-114.007439W,485.00,0.07,17
2016181,25.38,420.43,34,31.69,-8.59,4.56,-0.62,11:5:7,33.664619N,-114.007439W,485.00,0.15,18
2017182,25.39,420.43,34,31.70,-8.58,4.56,-0.62,11:5:8,33.664619N,-114.007439W,485.00,0.09,18
2018183,25.38,420.43,35,31.71,-8.59,4.55,-0.61,11:5:9,33.664619N,-114.007439W,485.00,0.03,18
2019184,25.38,420.43,34,31.73,-8.58,4.55,-0.61,11:5:10,33.664619N,-114.007439W,485.00,0.02,18
2020185,25.39,420.52,35,31.71,-8.59,4.54,-0.61,11:5:11,33.664619N,-114.007439W,485.00,0.06,18
2021186,25.39,420.61,34,31.72,-7.37,4.55,-0.62,11:5:12,33.664619N,-114.007439W,485.00,0.15,18
2022187,25.39,420.52,34,31.69,-8.59,4.55,-0.61,11:5:13,33.664619N,-114.007439W,485.00,0.10,17
2023188,25.39,420.52,34,31.70,-8.60,4.56,-0.62,11:5:14,33.664619N,-114.007439W,484.90,0.08,18
2024189,25.39,420.52,34,31.73,-8.59,4.55,-0.62,11:5:15,33.664619N,-114.007439W,485.00,0.02,18
2025190,25.37,420.43,34,31.70,-8.58,4.54,-0.62,11:5:16,33.664619N,-114.007439W,485.00,0.05,18
2026191,25.36,420.43,34,31.71,-8.60,4.56,-0.62,11:5:17,33.664619N,-114.007439W,485.00,0.14,18
2027192,25.37,420.43,34,31.71,-8.59,4.55,-0.62,11:5:18,33.664619N,-114.007439W,485.00,0.06,18
2028193,25.37,420.43,34,31.69,-8.59,4.55,-0.61,11:5:19,33.664619N,-114.007439W,485.00,0.08,18
2029194,25.38,420.43,33,31.74,-8.59,4.56,-0.62,11:5:20,33.664619N,-114.007439W,485.00,0.14,18
2030195,25.40,420.35,33,31.73,-8.59,4.56,-0.62,11:5:21,33.664619N,-114.007439W,485.00,0.12,18
2031196,25.41,420.26,30,31.73,-8.58,4.56,-0.62,11:5:22,33.664619N,-114.007439W,485.00,0.05,18
2032197,25.42,420.17,31,31.70,-8.59,4.55,-0.62,11:5:23,33.664619N,-114.007439W,485.00,0.06,18
2033198,25.42,420.26,33,31.74,-8.58,4.55,-0.62,11:5:24,33.664619N,-114.007439W,485.00,0.10,18
2034199,25.41,420.26,34,31.76,-8.58,4.56,-0.61,11:5:25,33.664619N,-114.007439W,485.00,0.16,18
2035200,25.41,420.26,34,31.73,-8.59,4.55,-0.62,11:5:26,33.664619N,-114.007439W,485.00,0.07,18
2036201,25.41,420.17,34,31.73,-8.59,4.54,-0.62,11:5:27,33.664619N,-114.007439W,485.00,0.03,18
2037202,25.41,420.26,34,31.72,-8.59,4.55,-0.60,11:5:28,33.664619N,-114.007439W,485.00,0.07,18
2038203,25.42,420.35,34,31.74,-8.59,4.55,-0.62,11:5:29,33.664623N,-114.007439W,485.00,0.09,18
2039204,25.43,420.35,34,31.73,-8.59,4.55,-0.61,11:5:30,33.664623N,-114.007439W,485.00,0.05,18
2040205,25.44,420.35,34,31.75,-8.59,4.56,-0.62,11:5:31,33.664623N,-114.007439W,485.10,0.09,18
2041206,25.45,420.26,34,31.78,-8.59,4.55,-0.62,11:5:32,33.664623N,-114.007439W,485.10,0.07,18
2042207,25.46,420.17,31,31.77,-8.58,4.55,-0.63,11:5:33,33.664623N,-114.007439W,485.10,0.05,18
2043208,25.47,420.26,30,31.73,-8.59,4.55,-0.61,11:5:34,33.664623N,-114.007439W,485.10,0.13,18
2044209,25.48,420.26,33,31.76,-8.58,4.54,-0.62,11:5:35,33.664623N,-114.007439W,485.00,0.31,18
2045210,25.47,420.26,31,31.73,-8.59,4.55,-0.62,11:5:36,33.664623N,-114.007439W,485.00,0.22,18
2046211,25.48,420.26,34,31.74,-8.59,4.55,-0.61,11:5:37,33.664623N,-114.007439W,485.00,0.06,18
2047212,25.48,420.17,34,31.79,-8.58,4.56,-0.62,11:5:38,33.664623N,-114.007439W,485.00,0.02,18
2048213,25.48,420.17,34,31.76,-8.59,4.55,-0.61,11:5:39,33.664623N,-114.007439W,485.10,0.06,18
2049214,25.49,420.17,34,31.73,-8.58,4.55,-0.62,11:5:40,33.664623N,-114.007439W,485.00,0.01,18
2050215,25.49,420.09,34,31.77,-8.59,4.55,-0.62,11:5:41,33.664623N,-114.007439W,485.00,0.03,18
2051216,25.49,420.17,34,31.76,-8.58,4.55,-0.61,11:5:42,33.664623N,-114.007439W,485.00,0.05,18
2052217,25.49,420.09,35,31.74,-8.59,4.55,-0.62,11:5:43,33.664623N,-114.007439W,485.00,0.13,18
2053218,25.48,420.09,34,31.73,-8.58,4.55,-0.61,11:5:44,33.664623N,-114.007439W,485.00,0.03,18
2054219,25.48,420.09,34,31.73,-8.59,4.54,-0.62,11:5:45,33.664623N,-114.007439W,485.10,0.07,18
2055220,25.48,420.09,35,31.75,-8.59,4.55,-0.62,11:5:46,33.664623N,-114.007439W,485.10,0.23,18
2056221,25.47,420.09,34,31.75,-8.59,4.55,-0.61,11:5:47,33.664623N,-114.007439W,485.10,0.07,17
2057222,25.46,420.09,34,31.79,-8.59,4.55,-0.62,11:5:48,33.664623N,-114.007439W,485.10,0.06,18
2058223,25.46,420.09,34,31.81,-8.59,4.55,-0.62,11:5:49,33.664623N,-114.007439W,485.20,0.08,18
2059224,25.45,420.09,35,31.79,-8.59,4.56,-0.61,11:5:50,33.664623N,-114.007439W,485.20,0.06,18
2060225,25.45,420.17,34,31.75,-8.58,4.55,-0.63,11:5:51,33.664623N,-114.007439W,485.20,0.03,18
2061226,25.45,420.17,33,31.82,-8.58,4.55,-0.62,11:5:52,33.664623N,-114.007439W,485.20,0.06,18
2062227,25.43,420.26,33,31.80,-8.60,4.55,-0.61,11:5:53,33.664623N,-114.007439W,485.20,0.03,18
2063228,25.42,420.17,34,31.82,-8.59,4.56,-0.61,11:5:54,33.664623N,-114.007439W,485.20,0.38,18
2064229,25.43,420.17,34,31.82,-8.60,4.56,-0.62,11:5:55,33.664623N,-114.007439W,485.30,0.07,18
2065230,25.43,420.17,34,31.80,-8.59,4.55,-0.62,11:5:56,33.664623N,-114.007439W,485.30,0.08,18
2066231,25.44,420.26,34,31.77,-8.59,4.55,-0.63,11:5:57,33.664623N,-114.007439W,485.30,0.12,18
2067232,25.44,420.35,34,31.80,-8.59,4.55,-0.61,11:5:58,33.664623N,-114.007439W,485.30,0.08,18
2068233,25.44,420.35,34,31.86,-8.60,4.56,-0.61,11:5:59,33.664627N,-114.007439W,485.30,0.13,18
2069234,25.40,420.35,34,31.78,-8.59,4.55,-0.62,11:6:0,33.664627N,-114.007439W,485.20,0.16,18
2070235,25.38,420.35,34,31.74,-8.59,4.54,-0.62,11:6:1,33.664627N,-114.007439W,485.30,0.18,18
2071236,25.37,420.35,34,31.78,-8.59,4.55,-0.62,11:6:2,33.664627N,-114.007439W,485.30,0.13,18
2072237,25.35,420.43,34,31.82,-8.60,4.54,-0.61,11:6:3,33.664627N,-114.007439W,485.30,0.08,18
2073238,25.34,420.35,34,31.82,-8.59,4.55,-0.62,11:6:4,33.664627N,-114.007439W,485.30,0.07,18
2074239,25.34,420.35,34,31.82,-8.60,4.55,-0.62,11:6:5,33.664627N,-114.007439W,485.30,0.07,18
2075240,25.32,420.35,34,31.85,-8.59,4.55,-0.61,11:6:6,33.664627N,-114.007439W,485.30,0.09,18
2076241,25.29,420.43,34,31.84,-8.59,4.56,-0.62,11:6:7,33.664627N,-114.007439W,485.30,0.08,18
2077242,25.28,420.43,34,31.82,-8.60,4.56,-0.62,11:6:8,33.664627N,-114.007439W,485.30,0.13,18
2078243,25.27,420.35,34,31.83,-8.58,4.55,-0.62,11:6:9,33.664627N,-114.007439W,485.30,0.10,18
2079244,25.27,420.35,34,31.87,-8.60,4.54,-0.63,11:6:10,33.664627N,-114.007439W,485.40,0.02,18
2080245,25.27,420.35,34,31.80,-8.59,4.55,-0.61,11:6:11,33.664627N,-114.007439W,485.30,0.08,18
2081246,25.28,420.35,34,31.86,-8.60,4.55,-0.63,11:6:12,33.664627N,-114.007439W,485.30,0.13,18
2082247,25.28,420.26,34,31.86,-8.59,4.55,-0.61,11:6:13,33.664627N,-114.007439W,485.30,0.21,18
2083248,25.28,420.35,34,31.84,-8.60,4.55,-0.62,11:6:14,33.664623N,-114.007439W,485.30,0.12,18
2084249,25.28,420.35,34,31.87,-8.59,4.55,-0.62,11:6:15,33.664623N,-114.007439W,485.30,0.09,18
2085250,25.28,420.35,34,31.86,-8.58,4.55,-0.63,11:6:16,33.664623N,-114.007439W,485.30,0.06,18
2086251,25.28,420.26,35,31.82,-8.58,4.55,-0.61,11:6:17,33.664623N,-114.007439W,485.30,0.12,18
2087252,25.27,420.26,35,31.84,-8.59,4.55,-0.62,11:6:18,33.664623N,-114.007439W,485.30,0.07,18
2088253,25.28,420.17,34,31.91,-8.58,4.56,-0.62,11:6:19,33.664623N,-114.007439W,485.30,0.22,18
2089254,25.28,420.17,34,31.91,-8.59,4.55,-0.62,11:6:20,33.664623N,-114.007439W,485.30,0.08,18
2090255,25.28,420.17,34,31.85,-8.58,4.56,-0.63,11:6:21,33.664623N,-114.007439W,485.30,0.09,18
2091256,25.27,420.26,34,31.86,-8.58,4.56,-0.62,11:6:22,33.664623N,-114.007439W,485.30,0.05,18
2092257,25.27,420.17,35,31.83,-8.60,4.56,-0.62,11:6:23,33.664623N,-114.007439W,485.40,0.09,18
2093258,25.27,420.35,34,31.84,-8.60,4.55,-0.61,11:6:24,33.664623N,-114.007439W,485.30,0.06,18
2094259,25.26,420.35,33,31.86,-8.59,4.55,-0.62,11:6:25,33.664623N,-114.007439W,485.30,0.18,18
2095260,25.26,420.26,34,31.87,-8.59,4.55,-0.61,11:6:26,33.664623N,-114.007439W,485.30,0.13,18
2096261,25.26,420.35,33,31.88,-8.59,4.56,-0.61,11:6:27,33.664623N,-114.007439W,485.30,0.07,18
2097262,25.25,420.26,34,31.86,-8.59,4.55,-0.62,11:6:28,33.664623N,-114.007439W,485.30,0.03,18
2098263,25.25,420.26,34,31.87,-8.59,4.56,-0.62,11:6:29,33.664623N,-114.007439W,485.40,0.07,18
2099264,25.25,420.26,34,31.86,-8.59,4.54,-0.61,11:6:30,33.664623N,-114.007439W,485.40,0.02,18
2100265,25.25,420.35,34,31.91,-8.59,4.55,-0.61,11:6:31,33.664623N,-114.007439W,485.40,0.25,18
2101266,25.27,420.43,34,31.91,-8.59,4.55,-0.62,11:6:32,33.664627N,-114.007439W,485.40,0.08,18
2102267,25.28,420.35,35,31.91,-8.59,4.55,-0.61,11:6:33,33.664627N,-114.007439W,485.50,0.13,18
time_since_start,bme_temp,bme_alt,uv,ism_temp,acc_x,acc_y,acc_z,gps_time,latitude,longitude,gps_alt,speed,sats
1802438,25.34,901.16,0,24.10,-8.08,4.99,-2.66,4:20:59,34.181374N,-112.973976W,934.00,8.16,15
1803439,25.35,901.16,0,24.11,-7.84,4.75,-2.27,4:21:0,34.181343N,-112.974007W,933.80,7.63,15
1804440,25.35,901.07,0,24.11,-7.82,4.06,-2.16,4:21:1,34.181320N,-112.974030W,933.80,7.42,15
1805441,25.35,900.98,0,24.09,-8.32,4.62,-2.87,4:21:2,34.181297N,-112.974052W,933.60,7.21,14
1806442,25.35,900.98,0,24.06,-7.98,4.56,-1.63,4:21:3,34.181278N,-112.974068W,933.50,7.39,15
1807443,25.36,900.98,0,24.07,-8.42,4.64,-2.38,4:21:4,34.181255N,-112.974091W,933.40,7.96,15
1808444,25.36,900.89,0,24.06,-7.29,4.56,-3.15,4:21:5,34.181232N,-112.974121W,933.30,7.77,15
1809445,25.36,900.71,0,24.05,-7.83,4.47,-2.22,4:21:6,34.181213N,-112.974144W,933.60,8.15,15
1810446,25.38,900.71,0,24.07,-9.16,4.40,-1.80,4:21:7,34.181190N,-112.974159W,934.10,8.10,17
1811447,25.38,900.71,0,24.10,-8.47,4.40,-2.69,4:21:8,34.181171N,-112.974182W,934.40,8.33,17
1812448,25.38,900.62,0,24.07,-6.73,4.07,-3.53,4:21:9,34.181149N,-112.974220W,934.40,9.04,17
1813449,25.38,900.53,0,24.09,-9.15,5.20,-2.45,4:21:10,34.181122N,-112.974243W,933.90,9.29,17
1814450,25.37,900.25,0,24.04,-9.12,4.72,-1.49,4:21:11,34.181099N,-112.974281W,934.10,9.37,18
1815451,25.39,900.25,0,24.04,-8.89,4.52,-2.48,4:21:12,34.181076N,-112.974319W,933.70,9.36,18
1816452,25.38,900.16,0,24.02,-7.90,4.37,-2.05,4:21:13,34.181049N,-112.974350W,934.30,9.45,18
1817453,25.38,900.16,0,24.06,-8.06,4.24,-1.89,4:21:14,34.181023N,-112.974373W,935.00,9.77,18
1818454,25.37,900.07,0,24.06,-7.41,4.20,-1.79,4:21:15,34.180996N,-112.974411W,936.20,10.19,18
1819455,25.37,899.98,0,24.04,-8.76,5.41,-2.64,4:21:16,34.180965N,-112.974449W,935.70,10.20,18
1820456,25.37,899.80,0,24.04,-6.90,4.41,-2.76,4:21:17,34.180939N,-112.974487W,935.90,10.14,18
1821457,25.37,899.71,0,24.05,-7.60,4.57,-2.32,4:21:18,34.180908N,-112.974525W,936.00,9.88,18
1822458,25.37,899.62,0,24.04,-7.70,4.80,-2.77,4:21:19,34.180882N,-112.974556W,935.80,9.90,18
1823459,25.37,899.53,0,24.02,-7.16,4.19,-2.88,4:21:20,34.180851N,-112.974594W,935.50,9.71,18
1824460,25.37,899.53,0,24.04,-8.13,4.67,-1.88,4:21:21,34.180828N,-112.974632W,936.10,9.39,18
1825461,25.37,899.53,0,24.06,-7.27,4.11,-1.87,4:21:22,34.180801N,-112.974655W,936.60,9.20,18
1826462,25.37,899.35,0,24.02,-9.28,5.17,-2.89,4:21:23,34.180779N,-112.974693W,936.20,9.12,18
1827463,25.37,899.16,0,24.04,-8.89,5.21,-2.45,4:21:24,34.180752N,-112.974716W,935.80,8.92,18
1828464,25.37,898.98,0,24.08,-8.22,5.00,-1.99,4:21:25,34.180725N,-112.974762W,935.70,8.84,18
1829465,25.37,898.80,0,24.04,-8.63,4.40,-1.33,4:21:26,34.180702N,-112.974785W,935.70,9.35,17
1830466,25.37,898.53,0,24.04,-8.03,4.02,-1.02,4:21:27,34.180676N,-112.974823W,935.70,9.39,6
1831467,25.36,898.44,0,24.09,-8.21,4.44,-1.47,4:21:28,34.180637N,-112.974823W,935.50,8.91,10
1832468,25.35,898.35,0,24.06,-8.35,4.75,-2.02,4:21:29,34.180584N,-112.974846W,935.30,9.55,13
1833469,25.35,898.35,0,24.04,-7.91,3.28,-1.22,4:21:30,34.180553N,-112.974861W,935.30,8.76,12
1834470,25.34,898.26,0,24.06,-8.44,4.68,-1.49,4:21:31,34.180523N,-112.974884W,935.20,8.47,15
1835471,25.34,897.98,0,24.00,-10.62,5.84,-1.99,4:21:32,34.180504N,-112.974937W,935.10,8.26,16
1836472,25.34,897.89,0,24.06,-8.12,4.26,-0.67,4:21:33,34.180485N,-112.974976W,934.80,8.18,17
1837473,25.34,897.80,0,24.04,-8.36,3.86,-1.30,4:21:34,34.180466N,-112.975014W,934.30,8.78,17
1838474,25.33,897.80,0,24.02,-8.42,4.12,-0.99,4:21:35,34.180447N,-112.975037W,933.90,9.43,17
1839475,25.32,897.71,0,24.00,-8.09,4.24,-1.73,4:21:36,34.180420N,-112.975075W,933.50,9.50,17
1840476,25.32,897.71,0,24.11,-8.78,4.53,-1.78,4:21:37,34.180393N,-112.975105W,933.00,9.43,17
1841477,25.31,897.62,0,24.04,-8.64,4.68,-2.00,4:21:38,34.180367N,-112.975128W,932.70,9.17,17
1842478,25.31,897.62,0,24.06,-8.45,4.79,-1.43,4:21:39,34.180340N,-112.975166W,932.20,9.14,17
1843479,25.30,897.53,0,24.04,-8.69,4.04,-1.41,4:21:40,34.180313N,-112.975197W,931.70,9.16,17
1844480,25.30,897.35,0,24.05,-8.02,4.50,-1.55,4:21:41,34.180286N,-112.975235W,931.40,9.20,17
1845481,25.30,897.35,0,24.11,-8.80,4.74,-1.32,4:21:42,34.180264N,-112.975258W,931.40,9.42,17
1846482,25.29,897.26,0,24.06,-8.82,4.62,-0.91,4:21:43,34.180237N,-112.975281W,931.40,9.47,17
1847483,25.29,897.17,0,24.04,-9.04,4.55,-0.81,4:21:44,34.180206N,-112.975311W,931.10,9.40,17
1848484,25.29,897.08,0,24.07,-8.72,4.76,-1.20,4:21:45,34.180176N,-112.975349W,931.00,9.36,17
1849485,25.29,896.89,0,24.05,-8.95,4.39,-0.23,4:21:46,34.180149N,-112.975372W,931.10,8.87,17
1850486,25.30,896.80,0,24.11,-9.30,5.29,-1.64,4:21:47,34.180119N,-112.975395W,931.20,8.63,17
1851487,25.30,896.71,0,24.05,-8.21,4.79,-1.29,4:21:48,34.180092N,-112.975410W,932.80,7.88,17
1852488,25.30,896.62,0,24.07,-8.38,4.73,-1.60,4:21:49,34.180073N,-112.975433W,933.10,7.12,17
1853489,25.30,896.44,0,24.04,-8.55,4.53,-1.50,4:21:50,34.180061N,-112.975464W,934.50,6.57,18
1854490,25.30,896.44,0,24.02,-8.67,3.98,-2.01,4:21:51,34.180046N,-112.975487W,934.00,6.04,18
1855491,25.31,896.35,0,24.08,-8.58,4.63,-1.74,4:21:52,34.180031N,-112.975517W,934.00,6.46,18
1856492,25.31,896.44,0,24.05,-8.75,4.42,-1.15,4:21:53,34.180016N,-112.975540W,933.80,7.17,18
1857493,25.31,896.35,0,24.07,-8.58,3.65,-1.84,4:21:54,34.180004N,-112.975578W,933.40,7.19,18
1858494,25.31,896.26,0,24.00,-9.14,4.31,-1.72,4:21:55,34.179989N,-112.975601W,933.50,7.12,16
1859495,25.32,896.26,0,24.06,-8.27,4.99,-2.16,4:21:56,34.179970N,-112.975632W,933.50,7.14,12
1860496,25.32,896.17,0,24.02,-8.10,4.79,-2.29,4:21:57,34.179935N,-112.975616W,933.30,7.50,17
1861497,25.31,896.17,0,24.04,-8.95,4.33,-1.58,4:21:58,34.179920N,-112.975601W,933.50,7.59,18
1862498,25.31,896.08,0,24.02,-8.83,4.13,-1.07,4:21:59,34.179890N,-112.975616W,933.60,8.25,18
1863499,25.31,896.17,0,24.05,-8.81,3.91,-1.74,4:22:0,34.179859N,-112.975655W,933.90,9.17,18
1864500,25.30,896.17,0,24.02,-8.82,4.66,-0.97,4:22:1,34.179821N,-112.975677W,933.80,10.43,18
1865501,25.31,896.17,0,24.02,-7.51,4.18,-1.51,4:22:2,34.179790N,-112.975716W,933.70,11.18,18
1866502,25.30,896.08,0,24.06,-9.21,4.77,-1.67,4:22:3,34.179749N,-112.975754W,933.70,11.23,17
1867503,25.29,895.99,0,23.98,-8.21,4.44,-1.33,4:22:4,34.179714N,-112.975792W,933.70,11.19,17
1868504,25.28,895.80,0,24.04,-10.28,7.47,-4.43,4:22:5,34.179672N,-112.975822W,933.70,11.12,17
1869505,25.27,895.80,0,24.06,-7.56,4.19,-1.47,4:22:6,34.179634N,-112.975845W,933.90,10.67,17
1870506,25.27,895.71,0,24.06,-7.32,5.12,-2.34,4:22:7,34.179596N,-112.975868W,934.20,10.35,17
1871507,25.27,895.62,0,24.09,-7.44,4.26,-1.87,4:22:8,34.179558N,-112.975899W,934.20,10.34,17
1872508,25.27,895.62,0,24.07,-8.83,4.55,-1.18,4:22:9,34.179520N,-112.975914W,934.90,10.11,17
1873509,25.27,895.62,0,24.07,-7.66,3.12,-1.96,4:22:10,34.179489N,-112.975937W,935.80,10.06,17
1874510,25.26,895.53,0,24.07,-8.02,5.11,-1.60,4:22:11,34.179451N,-112.975960W,936.10,10.57,18
1875511,25.26,895.35,0,23.99,-8.05,4.09,-1.11,4:22:12,34.179413N,-112.975975W,936.50,10.53,18
1876512,25.25,895.26,0,24.02,-8.97,4.57,-1.73,4:22:13,34.179375N,-112.975998W,937.00,10.55,18
1877513,25.25,895.26,0,24.06,-7.89,4.07,-2.00,4:22:14,34.179337N,-112.976028W,937.40,10.76,18
1878514,25.24,895.17,0,24.04,-8.41,4.39,-2.12,4:22:15,34.179295N,-112.976051W,937.50,11.63,18
1879515,25.24,895.08,0,24.00,-8.60,4.66,-1.90,4:22:16,34.179253N,-112.976089W,937.40,12.66,18
1880516,25.23,894.99,0,24.00,-7.79,4.50,-1.52,4:22:17,34.179211N,-112.976112W,937.40,13.05,18
1881517,25.22,894.81,0,24.04,-7.98,5.01,-2.10,4:22:18,34.179165N,-112.976151W,937.10,12.79,18
1882518,25.21,894.71,0,24.04,-7.95,4.43,-1.82,4:22:19,34.179115N,-112.976181W,937.10,12.70,18
1883519,25.19,894.62,0,24.04,-8.95,4.32,-1.16,4:22:20,34.179073N,-112.976219W,936.90,12.67,18
1884520,25.18,894.44,0,24.02,-9.18,4.58,-1.86,4:22:21,34.179028N,-112.976242W,936.80,12.61,18
1885521,25.17,894.35,0,24.04,-8.20,4.83,-1.93,4:22:22,34.178982N,-112.976280W,936.70,12.68,18
1886522,25.16,894.26,0,24.02,-6.99,4.28,-2.32,4:22:23,34.178936N,-112.976311W,936.40,12.61,18
1887523,25.15,894.08,0,24.07,-8.44,4.39,-1.69,4:22:24,34.178894N,-112.976349W,936.20,12.27,18
1888524,25.14,893.99,0,24.07,-8.57,4.38,-0.74,4:22:25,34.178856N,-112.976372W,936.10,11.86,18
1889525,25.13,893.90,0,24.04,-8.41,4.36,-0.86,4:22:26,34.178814N,-112.976410W,936.00,11.79,15
1890526,25.13,893.72,0,24.05,-9.49,3.66,0.41,4:22:27,34.178764N,-112.976395W,935.80,10.54,14
1891527,25.12,893.53,0,24.07,-10.38,4.34,-0.09,4:22:28,34.178722N,-112.976433W,935.70,9.55,17
1892528,25.11,893.53,0,24.01,-10.14,3.85,1.48,4:22:29,34.178684N,-112.976448W,935.20,8.93,16
1893529,25.10,893.44,0,24.02,-9.92,3.80,-0.23,4:22:30,34.178650N,-112.976448W,934.70,8.94,15
1894530,25.09,893.44,0,24.04,-9.05,4.01,-0.46,4:22:31,34.178619N,-112.976425W,934.20,10.13,15
1895531,25.09,893.44,0,24.02,-8.50,4.48,-1.07,4:22:32,34.178596N,-112.976387W,934.30,10.17,16
1896532,25.08,893.44,0,24.04,-8.48,4.60,-2.09,4:22:33,34.178593N,-112.976334W,934.40,9.84,17
1897533,25.08,893.26,0,24.01,-9.48,5.88,1.23,4:22:34,34.178581N,-112.976280W,934.30,8.99,18
1898534,25.08,892.99,0,24.04,-16.40,9.70,-4.07,4:22:35,34.178570N,-112.976242W,933.80,8.99,18
1899535,25.08,892.99,0,24.04,-7.66,3.94,-2.01,4:22:36,34.178558N,-112.976204W,933.50,8.46,18
1900536,25.08,892.99,0,24.06,-8.81,2.52,-3.79,4:22:37,34.178539N,-112.976166W,932.90,7.61,18
1901537,25.08,893.26,0,24.02,-9.10,4.97,-1.97,4:22:38,34.178520N,-112.976143W,932.90,7.03,18
1902538,25.08,893.26,0,24.06,-8.83,4.65,-2.66,4:22:39,34.178497N,-112.976112W,932.90,8.66,18
1903539,25.08,893.53,0,24.05,-8.04,4.58,-3.31,4:22:40,34.178459N,-112.976105W,933.50,9.12,18
1904540,25.08,893.63,0,24.04,-8.56,4.43,-2.00,4:22:41,34.178421N,-112.976105W,933.50,9.47,18
1905541,25.08,893.63,0,24.00,-7.63,2.79,-2.24,4:22:42,34.178379N,-112.976105W,933.70,9.83,18
1906542,25.08,893.63,0,24.07,-6.07,4.17,-1.64,4:22:43,34.178337N,-112.976143W,933.10,11.28,18
1907543,25.08,893.53,0,24.04,-8.15,4.13,-1.28,4:22:44,34.178299N,-112.976166W,933.00,11.28,18
1908544,25.07,893.35,0,24.04,-9.24,4.97,-2.32,4:22:45,34.178261N,-112.976204W,933.10,10.83,18
1909545,25.07,893.17,0,24.01,-8.67,4.48,-0.92,4:22:46,34.178230N,-112.976242W,933.20,10.62,18
1910546,25.06,893.08,0,24.04,-9.23,5.05,-2.72,4:22:47,34.178200N,-112.976280W,933.50,10.84,18
1911547,25.05,892.99,0,24.06,-7.02,3.94,-1.44,4:22:48,34.178165N,-112.976318W,933.60,11.11,18
1912548,25.04,892.90,0,24.02,-9.13,5.01,-0.86,4:22:49,34.178135N,-112.976357W,933.60,10.84,18
1913549,25.03,892.81,0,24.06,-8.02,4.61,-1.30,4:22:50,34.178101N,-112.976387W,933.20,10.58,18
1914550,25.02,892.72,0,24.02,-8.10,4.69,-2.12,4:22:51,34.178062N,-112.976410W,933.50,10.32,18
1915551,25.01,892.63,0,24.00,-6.85,3.16,-1.05,4:22:52,34.178024N,-112.976433W,934.00,10.70,18
1916552,24.99,892.54,0,24.00,-7.98,4.40,-2.55,4:22:53,34.177990N,-112.976463W,934.40,10.47,18
1917553,24.99,892.45,0,24.07,-8.15,4.39,-2.14,4:22:54,34.177952N,-112.976486W,934.00,10.19,18
1918554,24.99,892.35,0,24.06,-9.26,4.66,-1.16,4:22:55,34.177921N,-112.976524W,933.80,10.42,18
1919555,24.99,892.17,0,24.02,-9.51,4.26,0.51,4:22:56,34.177891N,-112.976547W,933.70,10.11,16
1920556,24.98,891.99,0,24.02,-7.65,4.92,-1.12,4:22:57,34.177883N,-112.976616W,932.80,11.60,14
1921557,24.97,891.81,0,24.00,-10.44,5.48,-0.99,4:22:58,34.177841N,-112.976669W,931.90,11.54,15
1922558,24.95,891.72,0,24.02,-8.65,4.61,-3.28,4:22:59,34.177811N,-112.976692W,930.80,10.80,15
1923559,24.94,891.63,0,24.04,-9.72,4.58,-0.83,4:23:0,34.177773N,-112.976746W,930.00,10.42,16
1924560,24.94,891.63,0,24.05,-8.97,5.01,-1.00,4:23:1,34.177738N,-112.976753W,929.70,9.89,16
1925561,24.93,891.63,0,23.98,-8.39,3.80,-1.38,4:23:2,34.177704N,-112.976784W,929.70,10.62,17
1926562,24.93,891.54,0,24.02,-8.54,4.53,-0.96,4:23:3,34.177666N,-112.976791W,930.40,11.27,17
1927563,24.93,891.54,0,24.02,-8.69,4.93,-1.49,4:23:4,34.177624N,-112.976822W,930.80,11.87,17
1928564,24.92,891.54,0,23.99,-7.73,4.16,-2.16,4:23:5,34.177578N,-112.976845W,930.20,11.82,17
1929565,24.92,891.36,0,24.05,-8.40,4.90,-1.43,4:23:6,34.177532N,-112.976860W,929.70,11.10,18
1930566,24.91,891.26,0,23.98,-7.83,5.74,-3.91,4:23:7,34.177490N,-112.976883W,929.50,10.76,18
1931567,24.90,891.08,0,24.04,-8.65,4.78,-2.79,4:23:8,34.177448N,-112.976898W,929.70,10.45,18
1932568,24.90,890.99,0,24.02,-8.89,5.16,-1.32,4:23:9,34.177414N,-112.976921W,929.30,10.66,18
1933569,24.90,890.81,0,24.02,-7.85,4.32,-1.83,4:23:10,34.177383N,-112.976959W,929.50,11.20,17
1934570,24.89,890.81,0,24.02,-9.82,5.00,-0.92,4:23:11,34.177357N,-112.976997W,929.60,11.51,18
1935571,24.89,890.72,0,24.04,-8.40,4.11,-1.50,4:23:12,34.177326N,-112.977051W,929.80,10.87,18
1936572,24.89,890.72,0,24.02,-8.73,4.14,-0.43,4:23:13,34.177292N,-112.977089W,930.10,11.18,18
1937573,24.88,890.54,0,24.04,-8.44,4.63,-1.63,4:23:14,34.177261N,-112.977142W,930.30,11.67,18
1938574,24.87,890.45,0,24.02,-8.31,4.41,-1.92,4:23:15,34.177227N,-112.977180W,930.50,11.64,18
1939575,24.86,890.45,0,24.01,-8.47,4.02,-0.70,4:23:16,34.177193N,-112.977219W,930.60,11.61,18
1940576,24.86,890.27,0,23.98,-9.21,4.27,-1.05,4:23:17,34.177158N,-112.977257W,930.50,11.33,18
1941577,24.85,890.18,0,24.02,-9.07,4.50,-0.21,4:23:18,34.177128N,-112.977295W,930.00,11.15,18
1942578,24.85,889.99,0,24.04,-8.30,4.94,-1.21,4:23:19,34.177090N,-112.977333W,930.10,10.82,18
1943579,24.84,889.81,0,24.04,-9.98,5.37,-0.28,4:23:20,34.177059N,-112.977356W,930.50,10.01,18
1944580,24.84,889.72,0,24.00,-8.60,4.10,-1.77,4:23:21,34.177025N,-112.977371W,931.20,10.04,18
1945581,24.83,889.72,0,24.01,-8.82,4.64,-1.70,4:23:22,34.176991N,-112.977394W,931.20,9.74,18
1946582,24.83,889.63,0,24.02,-7.61,4.25,-1.88,4:23:23,34.176952N,-112.977409W,931.60,10.17,18
1947583,24.83,889.63,0,24.04,-7.70,4.34,-1.94,4:23:24,34.176918N,-112.977432W,931.90,10.23,18
1948584,24.82,889.45,0,24.09,-8.91,4.78,-1.10,4:23:25,34.176884N,-112.977448W,931.80,10.26,18
1949585,24.82,889.36,0,24.05,-7.95,4.02,-1.64,4:23:26,34.176846N,-112.977470W,931.80,10.23,13
1950586,24.82,889.27,0,24.07,-8.61,4.61,-1.21,4:23:27,34.176807N,-112.977524W,931.60,10.93,15
1951587,24.81,889.18,0,24.02,-9.08,4.52,-0.75,4:23:28,34.176773N,-112.977562W,931.50,10.51,15
1952588,24.81,889.09,0,24.02,-8.80,4.19,-0.62,4:23:29,34.176750N,-112.977615W,931.30,9.83,16
1953589,24.80,889.00,0,24.04,-7.12,4.12,-1.15,4:23:30,34.176731N,-112.977638W,930.70,9.46,17
1954590,24.80,888.90,0,24.04,-8.97,4.12,-0.23,4:23:31,34.176701N,-112.977661W,930.50,9.89,17
1955591,24.79,888.90,0,24.04,-8.65,3.94,-0.93,4:23:32,34.176666N,-112.977692W,930.40,9.86,17
1956592,24.79,888.90,0,24.07,-8.77,4.67,-1.38,4:23:33,34.176628N,-112.977699W,930.20,9.83,17
1957593,24.78,888.90,0,24.07,-7.08,4.48,-1.85,4:23:34,34.176586N,-112.977699W,930.00,10.34,17
1958594,24.77,888.81,0,24.09,-8.20,4.56,-2.23,4:23:35,34.176540N,-112.977699W,929.70,10.66,17
1959595,24.77,888.72,0,24.04,-8.93,4.59,-1.40,4:23:36,34.176502N,-112.977699W,929.10,10.60,17
1960596,24.77,888.63,0,24.00,-8.58,5.07,-2.07,4:23:37,34.176456N,-112.977715W,928.30,10.68,17
1961597,24.77,888.45,0,23.99,-8.37,4.52,-1.53,4:23:38,34.176414N,-112.977730W,928.00,10.66,17
1962598,24.78,888.36,0,24.02,-8.26,4.36,-0.92,4:23:39,34.176373N,-112.977753W,927.30,10.61,18
1963599,24.77,888.27,0,24.04,-8.21,4.89,-0.97,4:23:40,34.176334N,-112.977768W,926.80,10.85,18
1964600,24.77,888.27,0,24.04,-8.01,4.89,-1.61,4:23:41,34.176296N,-112.977776W,926.60,11.21,18
1965601,24.77,888.27,0,24.02,-7.90,4.76,-1.79,4:23:42,34.176254N,-112.977806W,926.30,10.68,18
1966602,24.76,888.18,0,24.00,-8.20,4.69,-1.38,4:23:43,34.176220N,-112.977821W,926.80,10.92,18
1967603,24.76,888.00,0,24.01,-7.99,4.51,-2.12,4:23:44,34.176182N,-112.977844W,927.00,10.93,17
1968604,24.75,888.00,0,24.05,-8.08,5.20,-2.33,4:23:45,34.176151N,-112.977867W,927.10,10.91,18
1969605,24.75,887.82,0,24.02,-8.37,4.69,-2.99,4:23:46,34.176117N,-112.977905W,927.10,10.52,18
1970606,24.75,887.63,0,24.01,-8.26,4.48,-1.69,4:23:47,34.176090N,-112.977943W,927.40,10.54,18
1971607,24.75,887.54,0,24.01,-8.46,4.75,-1.80,4:23:48,34.176064N,-112.977997W,926.80,10.32,18
1972608,24.74,887.45,0,23.98,-8.44,4.24,-1.33,4:23:49,34.176044N,-112.978035W,926.20,10.70,18
1973609,24.74,887.27,0,23.98,-8.16,4.12,-1.63,4:23:50,34.176029N,-112.978088W,926.30,10.67,18
1974610,24.74,887.27,0,24.04,-8.45,4.17,-1.09,4:23:51,34.176010N,-112.978127W,926.60,10.65,18
1975611,24.74,887.18,0,24.09,-8.93,4.71,-0.71,4:23:52,34.175991N,-112.978172W,927.00,10.69,18
1976612,24.73,887.00,0,24.04,-8.94,4.69,-1.10,4:23:53,34.175968N,-112.978226W,926.50,10.98,18
1977613,24.73,886.91,0,24.07,-8.75,4.81,-1.32,4:23:54,34.175945N,-112.978264W,926.40,11.05,18
1978614,24.72,886.91,0,24.04,-8.60,4.46,-1.39,4:23:55,34.175919N,-112.978317W,926.50,11.68,17
1979615,24.72,886.73,0,24.02,-9.14,4.82,-0.93,4:23:56,34.175896N,-112.978355W,926.60,11.35,12
1980616,24.71,886.45,0,23.98,-8.31,4.53,-1.25,4:23:57,34.175877N,-112.978416W,926.90,10.96,14
1981617,24.71,886.45,0,24.04,-8.08,4.75,-1.79,4:23:58,34.175850N,-112.978470W,926.90,11.28,14
1982618,24.71,886.36,0,24.04,-8.40,4.92,-2.61,4:23:59,34.175816N,-112.978523W,927.30,11.61,16
1983619,24.70,886.27,0,23.98,-8.22,4.19,-0.31,4:24:0,34.175777N,-112.978569W,927.20,11.20,16
1984620,24.69,886.09,0,24.01,-7.69,4.24,-2.13,4:24:1,34.175743N,-112.978615W,927.00,11.22,17
1985621,24.69,885.91,0,24.05,-8.76,4.97,-2.82,4:24:2,34.175716N,-112.978638W,926.70,11.23,17
1986622,24.68,885.73,0,24.02,-8.19,4.41,-1.92,4:24:3,34.175678N,-112.978676W,926.60,10.74,16
1987623,24.68,885.55,0,24.02,-10.39,6.17,-0.97,4:24:4,34.175644N,-112.978691W,926.70,10.66,16
1988624,24.67,885.55,0,24.04,-8.75,5.23,-1.41,4:24:5,34.175606N,-112.978729W,926.60,11.10,16
1989625,24.67,885.46,0,24.04,-8.30,4.54,-1.97,4:24:6,34.175564N,-112.978752W,926.20,11.11,17
1990626,24.67,885.46,0,24.02,-7.72,5.23,-2.24,4:24:7,34.175526N,-112.978775W,925.90,11.39,17
1991627,24.67,885.46,0,24.09,-8.25,4.70,-1.23,4:24:8,34.175484N,-112.978813W,925.70,10.98,17
1992628,24.67,885.46,0,24.10,-8.11,4.45,-1.82,4:24:9,34.175449N,-112.978844W,925.10,10.92,17
1993629,24.67,885.46,0,24.08,-8.37,4.59,-1.04,4:24:10,34.175411N,-112.978867W,924.20,10.99,17
1994630,24.67,885.28,0,24.09,-9.08,4.36,-0.84,4:24:11,34.175377N,-112.978905W,923.60,10.99,17
1995631,24.67,885.09,0,24.07,-8.27,4.28,-0.60,4:24:12,34.175343N,-112.978928W,923.20,11.00,17
1996632,24.67,885.00,0,24.00,-8.71,4.43,-0.71,4:24:13,34.175308N,-112.978958W,923.00,10.98,17
1997633,24.67,884.91,0,24.01,-8.95,4.64,-0.97,4:24:14,34.175274N,-112.978996W,923.10,10.73,17
1998634,24.67,884.82,0,24.07,-8.26,4.53,-2.22,4:24:15,34.175243N,-112.979012W,923.10,10.64,17
1999635,24.67,884.73,0,24.02,-8.37,4.31,-1.63,4:24:16,34.175205N,-112.979034W,922.90,10.34,17
2000636,24.67,884.55,0,24.09,-8.93,4.68,-1.97,4:24:17,34.175179N,-112.979073W,922.80,10.55,17
2001637,24.67,884.37,0,24.10,-8.37,4.61,-2.32,4:24:18,34.175144N,-112.979111W,923.10,10.89,17
2002638,24.67,884.46,0,24.07,-8.07,4.02,-1.90,4:24:19,34.175121N,-112.979149W,923.20,11.16,17
2003639,24.67,884.37,0,24.04,-8.37,4.34,-1.78,4:24:20,34.175095N,-112.979202W,922.80,11.18,17
2004640,24.67,884.37,0,24.10,-8.55,4.28,-1.67,4:24:21,34.175076N,-112.979248W,922.80,11.20,17
2005641,24.67,884.19,0,24.05,-8.34,4.31,-1.10,4:24:22,34.175053N,-112.979301W,922.60,11.46,17
2006642,24.66,884.01,0,24.05,-8.62,5.00,-1.76,4:24:23,34.175037N,-112.979355W,922.80,11.50,18
2007643,24.66,884.10,0,24.06,-8.74,4.47,-1.22,4:24:24,34.175022N,-112.979408W,923.80,11.44,18
2008644,24.66,884.01,0,24.09,-8.75,4.51,-2.12,4:24:25,34.175007N,-112.979454W,923.70,12.00,17
2009645,24.66,884.01,0,24.08,-7.98,4.59,-2.33,4:24:26,34.174992N,-112.979507W,923.70,11.96,11
2010646,24.66,883.91,0,24.09,-8.03,4.81,-2.14,4:24:27,34.174965N,-112.979523W,924.30,10.09,17
2011647,24.66,883.91,0,24.07,-7.83,3.88,-1.80,4:24:28,34.174957N,-112.979568W,924.20,11.35,15
2012648,24.66,883.82,0,24.06,-8.49,4.72,-0.97,4:24:29,34.174961N,-112.979622W,924.80,11.89,16
2013649,24.67,883.64,1,24.07,-7.93,4.25,-2.02,4:24:30,34.174965N,-112.979683W,925.10,11.83,16
2014650,24.67,883.55,1,24.02,-8.23,4.86,-2.22,4:24:31,34.174973N,-112.979736W,925.50,10.89,16
2015651,24.67,883.55,0,24.04,-7.58,4.70,-2.39,4:24:32,34.174992N,-112.979790W,926.10,11.31,16
2016652,24.67,883.46,0,24.10,-8.54,4.43,-1.79,4:24:33,34.175007N,-112.979851W,926.80,11.80,16
2017653,24.68,883.37,0,24.04,-7.98,4.64,-1.84,4:24:34,34.175026N,-112.979904W,926.80,11.60,16
2018654,24.68,883.37,0,23.99,-8.23,4.89,-2.13,4:24:35,34.175060N,-112.979965W,926.50,11.65,17
2019655,24.68,883.28,0,24.05,-8.56,4.77,-2.20,4:24:36,34.175083N,-112.980019W,926.20,11.59,18
2020656,24.68,883.19,0,24.04,-7.96,4.30,-1.85,4:24:37,34.175110N,-112.980080W,926.40,11.65,18
2021657,24.69,883.19,0,24.05,-8.69,4.81,-2.23,4:24:38,34.175137N,-112.980148W,926.50,11.91,18
2022658,24.69,883.10,0,24.06,-8.64,4.65,-2.15,4:24:39,34.175163N,-112.980202W,925.90,11.91,18
2023659,24.69,883.01,0,24.00,-8.45,5.00,-1.52,4:24:40,34.175182N,-112.980247W,925.60,11.90,18
2024660,24.69,883.01,0,24.05,-8.59,4.32,-1.66,4:24:41,34.175205N,-112.980301W,925.50,11.91,18
2025661,24.69,882.92,1,24.05,-8.15,4.48,-1.82,4:24:42,34.175224N,-112.980362W,924.70,11.44,18
2026662,24.69,882.83,0,24.06,-6.97,4.14,-2.36,4:24:43,34.175243N,-112.980415W,924.20,12.26,18
2027663,24.69,882.74,0,24.04,-8.92,5.36,-1.88,4:24:44,34.175262N,-112.980476W,923.40,12.29,18
2028664,24.70,882.55,0,24.04,-8.42,3.92,-1.27,4:24:45,34.175282N,-112.980530W,923.20,12.36,18
2029665,24.70,882.46,0,24.00,-8.94,4.67,-0.93,4:24:46,34.175293N,-112.980583W,923.40,12.10,18
2030666,24.71,882.37,0,24.07,-8.12,4.24,-2.23,4:24:47,34.175301N,-112.980644W,923.60,11.74,18
2031667,24.71,882.28,0,24.05,-8.92,4.87,-1.96,4:24:48,34.175316N,-112.980713W,923.20,11.49,18
2032668,24.71,882.19,0,24.01,-8.73,4.46,-2.12,4:24:49,34.175323N,-112.980759W,922.70,11.76,18
2033669,24.71,882.10,0,24.01,-8.50,5.13,-2.18,4:24:50,34.175331N,-112.980812W,922.50,11.57,18
2034670,24.71,882.01,0,23.96,-7.44,3.35,-2.82,4:24:51,34.175343N,-112.980873W,922.70,11.89,18
2035671,24.71,881.92,0,24.04,-7.59,4.19,-1.76,4:24:52,34.175354N,-112.980927W,922.70,11.94,18
2036672,24.71,881.83,0,24.02,-8.53,4.35,-1.76,4:24:53,34.175369N,-112.980980W,923.00,11.90,18
2037673,24.71,881.74,0,24.02,-9.19,4.82,-0.84,4:24:54,34.175381N,-112.981041W,923.00,11.68,18
2038674,24.71,881.65,0,24.02,-8.01,4.68,-2.14,4:24:55,34.175392N,-112.981094W,922.70,11.74,18
2039675,24.71,881.65,0,23.99,-9.31,4.60,-1.98,4:24:56,34.175400N,-112.981155W,922.60,11.74,18
2040676,24.71,881.56,0,24.02,-7.91,3.79,-1.75,4:24:57,34.175407N,-112.981209W,922.10,11.73,18
2041677,24.71,881.56,0,24.04,-8.92,3.58,-1.10,4:24:58,34.175415N,-112.981262W,921.80,11.16,18
2042678,24.71,881.56,0,24.07,-8.33,3.93,-1.34,4:24:59,34.175423N,-112.981323W,921.20,11.36,18
2043679,24.71,881.56,0,24.00,-8.34,4.69,-0.94,4:25:0,34.175423N,-112.981377W,920.70,12.50,18
2044680,24.71,881.47,0,24.02,-8.30,4.87,-2.20,4:25:1,34.175423N,-112.981430W,920.30,13.05,18
2045681,24.71,881.28,0,23.98,-8.04,4.47,-1.63,4:25:2,34.175419N,-112.981491W,920.40,12.65,18
2046682,24.71,881.19,0,24.02,-7.70,4.57,-2.32,4:25:3,34.175415N,-112.981552W,920.50,12.43,18
2047683,24.71,881.19,0,24.02,-7.59,4.39,-2.17,4:25:4,34.175411N,-112.981606W,920.60,12.43,18
2048684,24.71,881.10,0,23.98,-8.33,4.91,-1.67,4:25:5,34.175404N,-112.981674W,920.50,12.36,18
2049685,24.71,881.01,0,24.00,-8.72,5.95,-1.60,4:25:6,34.175400N,-112.981735W,919.80,12.29,18
2050686,24.72,880.83,0,24.00,-6.89,4.94,-1.32,4:25:7,34.175400N,-112.981789W,919.80,11.16,18
2051687,24.72,880.83,0,24.04,-7.39,3.22,-1.29,4:25:8,34.175400N,-112.981834W,919.70,9.80,18
2052688,24.72,880.65,0,24.04,-6.94,3.94,-1.86,4:25:9,34.175400N,-112.981873W,919.20,9.24,18
2053689,24.72,880.65,0,24.01,-8.77,3.65,-1.62,4:25:10,34.175400N,-112.981926W,918.80,8.76,18
2054690,24.73,880.65,0,24.02,-7.64,4.39,-1.65,4:25:11,34.175404N,-112.981964W,917.90,8.02,18
2055691,24.73,880.65,0,23.98,-7.95,4.43,-2.39,4:25:12,34.175415N,-112.982002W,918.30,9.00,18
2056692,24.73,880.47,0,24.04,-8.96,4.28,-0.65,4:25:13,34.175426N,-112.982056W,917.90,9.45,18
2057693,24.74,880.47,0,24.01,-8.98,4.47,-0.60,4:25:14,34.175446N,-112.982094W,917.50,10.17,18
2058694,24.74,880.47,0,24.01,-7.11,2.95,-1.04,4:25:15,34.175472N,-112.982132W,917.00,10.39,18
2059695,24.74,880.38,0,24.04,-6.83,2.77,-1.40,4:25:16,34.175495N,-112.982170W,916.70,11.18,18
2060696,24.75,880.38,0,24.00,-8.84,4.65,-0.97,4:25:17,34.175518N,-112.982224W,916.80,10.45,18
2061697,24.75,880.29,0,24.05,-8.76,3.86,-1.45,4:25:18,34.175537N,-112.982262W,917.10,9.67,18
2062698,24.75,880.29,0,24.02,-7.71,3.42,-0.44,4:25:19,34.175549N,-112.982307W,917.50,9.45,18
2063699,24.75,880.29,0,24.04,-6.89,4.05,-1.24,4:25:20,34.175556N,-112.982361W,917.70,10.08,18
2064700,24.76,880.38,0,24.02,-9.84,5.31,-2.44,4:25:21,34.175560N,-112.982399W,917.60,9.68,18
2065701,24.76,880.38,0,24.01,-8.82,4.53,-2.56,4:25:22,34.175560N,-112.982452W,917.50,10.11,18
2066702,24.76,880.38,0,24.06,-8.47,4.61,-3.07,4:25:23,34.175560N,-112.982506W,917.30,10.36,18
2067703,24.77,880.20,0,24.02,-9.46,4.54,-1.27,4:25:24,34.175560N,-112.982552W,916.70,10.15,18
2068704,24.77,880.29,0,24.00,-7.64,5.09,-3.63,4:25:25,34.175564N,-112.982605W,916.60,10.97,18
2069705,24.77,880.20,0,23.98,-7.45,3.31,-1.23,4:25:26,34.175568N,-112.982666W,916.50,11.03,17
2070706,24.78,880.11,0,24.02,-8.11,3.54,0.19,4:25:27,34.175556N,-112.982666W,916.40,8.01,11
2071707,24.78,880.02,0,24.04,-9.20,4.58,-1.48,4:25:28,34.175560N,-112.982742W,915.50,10.04,13
2072708,24.78,880.02,0,24.06,-8.55,4.07,-1.05,4:25:29,34.175537N,-112.982796W,914.90,9.85,15
2073709,24.79,879.92,0,24.09,-9.13,4.42,-0.95,4:25:30,34.175518N,-112.982834W,914.70,9.32,16
2074710,24.79,879.92,0,24.07,-9.06,3.58,-1.37,4:25:31,34.175499N,-112.982887W,913.70,10.20,16
2075711,24.79,879.74,0,24.10,-9.02,4.71,-0.65,4:25:32,34.175480N,-112.982925W,912.30,11.02,16
2076712,24.80,879.65,0,24.02,-8.85,3.78,-2.08,4:25:33,34.175449N,-112.982979W,911.70,12.99,16
2077713,24.80,879.83,0,24.04,-9.16,4.32,-0.39,4:25:34,34.175407N,-112.983025W,911.10,14.50,17
2078714,24.80,879.92,0,24.02,-8.49,4.22,-1.79,4:25:35,34.175365N,-112.983078W,911.00,16.24,17
2079715,24.81,879.92,0,24.07,-7.98,4.07,-0.21,4:25:36,34.175320N,-112.983131W,910.90,17.44,17
2080716,24.81,879.83,0,24.08,-7.62,3.98,-1.31,4:25:37,34.175262N,-112.983192W,910.60,17.36,18
2081717,24.82,879.74,0,24.07,-8.84,3.95,-1.91,4:25:38,34.175213N,-112.983246W,909.90,17.06,18
2082718,24.82,879.56,0,24.11,-10.04,5.87,-1.10,4:25:39,34.175163N,-112.983307W,909.60,17.26,18
2083719,24.83,879.47,0,24.02,-8.80,3.78,-0.21,4:25:40,34.175114N,-112.983376W,909.20,18.21,18
2084720,24.83,879.47,0,24.02,-9.10,4.92,-1.63,4:25:41,34.175064N,-112.983437W,908.70,19.00,18
2085721,24.83,879.29,0,24.10,-8.38,5.22,-1.46,4:25:42,34.175018N,-112.983513W,908.90,19.28,18
2086722,24.83,879.29,0,24.01,-7.95,3.62,-1.68,4:25:43,34.174976N,-112.983574W,909.60,19.29,18
2087723,24.83,879.20,0,23.97,-7.12,4.11,-2.34,4:25:44,34.174938N,-112.983665W,908.90,19.04,18
2088724,24.82,879.11,0,24.00,-7.18,4.39,-2.86,4:25:45,34.174904N,-112.983742W,909.40,19.00,18
2089725,24.82,878.84,0,24.04,-7.47,4.23,-1.72,4:25:46,34.174870N,-112.983818W,909.50,18.97,18
2090726,24.82,878.75,0,24.04,-8.11,4.35,-1.67,4:25:47,34.174843N,-112.983910W,909.30,18.34,18
2091727,24.81,878.56,0,24.00,-8.49,5.08,-0.35,4:25:48,34.174812N,-112.983986W,908.80,17.84,18
2092728,24.81,878.38,0,24.05,-9.18,6.29,-1.83,4:25:49,34.174782N,-112.984062W,908.60,17.01,18
2093729,24.80,878.11,0,24.02,-8.84,4.94,-1.43,4:25:50,34.174747N,-112.984131W,908.10,15.48,18
2094730,24.79,877.93,0,24.01,-5.28,4.47,-3.16,4:25:51,34.174721N,-112.984192W,908.40,13.27,18
2095731,24.79,877.57,0,24.01,-9.39,6.17,-1.40,4:25:52,34.174686N,-112.984230W,907.70,11.90,18
2096732,24.79,877.30,0,23.98,-10.34,6.44,-3.13,4:25:53,34.174656N,-112.984268W,907.60,11.31,18
2097733,24.80,877.11,0,24.08,-8.49,3.74,-0.88,4:25:54,34.174625N,-112.984306W,907.50,11.29,18
2098734,24.80,877.02,0,24.02,-8.78,3.72,-1.01,4:25:55,34.174599N,-112.984344W,907.60,11.26,18
2099735,24.80,876.93,0,24.07,-8.90,3.50,-0.59,4:25:56,34.174564N,-112.984398W,907.30,12.10,18
2100736,24.80,876.84,0,24.07,-7.95,3.68,-1.69,4:25:57,34.174526N,-112.984436W,906.90,13.64,18
2101737,24.81,876.75,0,24.10,-8.15,3.80,-0.73,4:25:58,34.174496N,-112.984489W,907.40,14.39,18
