time_since_start,bme_temp,bme_alt,uv,ism_temp,acc_x,acc_y,acc_z,gps_time,latitude,longitude,gps_alt,speed,sats
5706870,-31.98,11576.09,25,6.71,-0.61,0.14,10.32,12:6:37,33.816921N,-113.899773W,11766.10,66.63,16
5707871,-31.96,11579.11,307,6.72,-0.14,-0.29,10.25,12:6:38,33.817085N,-113.899521W,11770.80,66.56,16
5708872,-31.91,11582.13,298,6.70,-0.06,-0.31,10.40,12:6:39,33.817257N,-113.899261W,11775.60,66.31,16
5709873,-31.89,11587.57,347,6.71,-0.44,-0.29,10.37,12:6:40,33.817429N,-113.899017W,11780.60,66.54,16
5710874,-31.86,11630.90,360,6.71,-0.28,-0.10,10.24,12:6:41,33.817593N,-113.898766W,11786.00,66.45,16
5711875,-31.86,11614.51,389,6.70,0.10,-0.43,10.27,12:6:42,33.817757N,-113.898506W,11792.00,65.42,16
5712876,-31.86,11572.17,352,6.66,0.04,-0.33,10.14,12:6:43,33.817917N,-113.898262W,11797.20,64.79,16
5713877,-31.50,11567.95,309,6.61,0.00,0.21,10.19,12:6:44,33.818069N,-113.898026W,11803.40,64.84,16
5714878,-31.26,11571.56,303,6.59,-0.04,-0.18,9.99,12:6:45,33.818218N,-113.897766W,11809.50,64.78,16
5715879,-31.13,11562.52,355,6.54,-0.25,-0.38,10.07,12:6:46,33.818367N,-113.897522W,11815.00,64.70,16
5716880,-30.91,11536.96,30,6.52,-0.43,-0.16,9.99,12:6:47,33.818512N,-113.897270W,11821.80,65.09,16
5717881,-30.78,11513.88,365,6.51,-0.46,-0.13,9.83,12:6:48,33.818676N,-113.896996W,11826.90,65.38,16
5718882,-30.79,11506.10,356,6.49,-0.07,-0.21,9.85,12:6:49,33.818821N,-113.896744W,11834.30,64.78,16
5719883,-31.00,11573.37,360,6.46,0.24,-0.25,9.95,12:6:50,33.818962N,-113.896484W,11839.50,63.94,16
5720884,-31.20,11629.38,336,6.44,-0.33,0.13,9.89,12:6:51,33.819099N,-113.896233W,11845.60,63.65,16
5721885,-31.37,11665.93,322,6.45,-0.55,-0.22,9.89,12:6:52,33.819241N,-113.895973W,11850.80,63.72,16
5722886,-31.50,11690.40,343,6.41,-0.35,-0.20,9.91,12:6:53,33.819378N,-113.895706W,11856.10,63.73,16
5723887,-31.64,11689.17,342,6.36,-0.26,-0.05,10.08,12:6:54,33.819515N,-113.895439W,11861.60,63.74,16
5724888,-31.78,11687.95,350,6.36,-0.31,-0.42,10.01,12:6:55,33.819653N,-113.895180W,11865.70,64.10,16
5725889,-31.90,11687.64,323,6.32,-0.34,-0.22,10.09,12:6:56,33.819790N,-113.894913W,11871.10,63.89,16
5726890,-31.97,11688.56,309,6.36,-0.58,-0.35,10.11,12:6:57,33.819923N,-113.894653W,11875.60,62.76,16
5727891,-32.00,11643.98,364,6.25,-0.20,-0.67,10.21,12:6:58,33.820049N,-113.894409W,11880.80,61.26,16
5728892,-31.91,11666.54,330,6.20,-0.22,-0.16,10.22,12:6:59,33.820175N,-113.894157W,11885.30,59.94,16
5729893,-31.90,11679.07,327,6.23,-0.47,-0.34,10.28,12:7:0,33.820309N,-113.893913W,11891.30,59.13,16
5730894,-31.93,11687.33,245,6.21,-0.13,-0.09,10.32,12:7:1,33.820450N,-113.893684W,11895.60,58.37,16
5731895,-31.98,11693.15,381,6.20,-0.11,-0.23,10.24,12:7:2,33.820583N,-113.893456W,11901.40,58.87,16
5732896,-32.02,11672.65,345,6.18,-0.07,0.12,10.36,12:7:3,33.820721N,-113.893234W,11906.30,60.38,16
5733897,-31.64,11635.77,369,6.19,-0.23,-0.25,10.18,12:7:4,33.820866N,-113.892990W,11912.30,60.89,16
5734898,-31.56,11610.26,366,6.18,-0.34,-0.64,10.23,12:7:5,33.821011N,-113.892761W,11918.30,60.24,16
5735899,-31.40,11619.36,351,6.19,-0.60,-0.72,10.15,12:7:6,33.821159N,-113.892548W,11924.00,59.31,16
5736900,-31.16,11642.16,307,6.18,-0.24,-0.20,10.26,12:7:7,33.821301N,-113.892311W,11931.30,58.41,16
5737901,-31.13,11640.94,346,6.16,-0.58,-0.28,10.24,12:7:8,33.821442N,-113.892097W,11936.90,57.49,16
5738902,-30.93,11668.07,372,6.17,-0.25,-0.11,10.24,12:7:9,33.821579N,-113.891869W,11944.40,56.77,16
5739903,-31.03,11691.01,299,6.16,0.06,-0.13,10.20,12:7:10,33.821720N,-113.891647W,11950.30,57.84,16
5740904,-31.25,11710.64,322,6.16,0.02,-0.07,10.23,12:7:11,33.821857N,-113.891434W,11957.90,59.99,16
5741905,-31.37,11696.83,323,6.13,-0.51,-0.18,10.13,12:7:12,33.822010N,-113.891190W,11963.80,62.00,16
5742906,-31.14,11718.62,284,6.08,-0.14,-0.31,10.22,12:7:13,33.822166N,-113.890945W,11971.00,63.51,16
5743907,-31.34,11736.78,335,6.07,-0.39,-0.66,10.29,12:7:14,33.822323N,-113.890701W,11977.60,65.04,16
5744908,-31.54,11728.16,356,6.03,-0.66,-0.10,10.14,12:7:15,33.822479N,-113.890457W,11984.20,65.11,16
5745909,-31.34,11746.96,318,5.98,-0.67,-0.27,10.22,12:7:16,33.822632N,-113.890205W,11991.30,64.55,16
5746910,-31.53,11764.26,351,5.99,-0.75,-0.49,10.14,12:7:17,33.822792N,-113.889946W,11998.50,64.20,16
5747911,-31.71,11784.38,350,5.94,-0.47,-0.39,10.17,12:7:18,33.822952N,-113.889702W,12006.00,64.59,16
5748912,-31.86,11805.19,330,5.95,-0.59,-0.39,10.08,12:7:19,33.823097N,-113.889450W,12012.90,65.27,16
5749913,-31.99,11817.63,327,5.87,-0.66,-0.53,10.07,12:7:20,33.823250N,-113.889175W,12020.30,66.63,16
5750914,-32.14,11836.65,335,5.87,-0.02,0.19,10.22,12:7:21,33.823406N,-113.888908W,12027.20,68.14,16
5751915,-32.27,11852.28,355,5.84,-0.09,-0.37,10.12,12:7:22,33.823566N,-113.888641W,12035.20,68.74,16
5752916,-32.39,11861.04,297,5.83,0.35,-0.11,10.12,12:7:23,33.823723N,-113.888374W,12041.60,68.80,16
5753917,-32.48,11865.74,345,5.84,-0.36,-0.20,10.16,12:7:24,33.823883N,-113.888100W,12049.30,68.73,16
5754918,-32.58,11871.07,333,5.71,-0.42,0.30,10.09,12:7:25,33.824043N,-113.887817W,12055.90,69.41,16
5755919,-32.66,11873.58,364,5.74,-0.11,-0.25,10.14,12:7:26,33.824203N,-113.887566W,12064.10,67.96,16
5756920,-32.72,11877.34,308,5.75,-0.13,-0.07,10.11,12:7:27,33.824360N,-113.887299W,12071.60,67.97,16
5757921,-32.73,11881.74,296,5.70,-0.08,-0.36,10.08,12:7:28,33.824520N,-113.887024W,12079.10,68.53,16
5758922,-32.73,11886.45,297,5.68,-0.05,-0.34,10.21,12:7:29,33.824680N,-113.886757W,12086.70,68.25,16
5759923,-32.71,11891.80,343,5.66,-0.04,-0.50,10.04,12:7:30,33.824848N,-113.886475W,12094.20,69.98,16
5760924,-32.70,11897.14,326,5.67,-0.40,-0.11,10.13,12:7:31,33.825016N,-113.886208W,12101.90,70.42,16
5761925,-32.68,11902.49,304,5.66,-0.15,-0.80,10.13,12:7:32,33.825180N,-113.885941W,12109.20,71.20,16
5762926,-32.68,11908.48,358,5.63,-0.44,-0.68,10.06,12:7:33,33.825352N,-113.885658W,12117.00,71.82,16
5763927,-32.66,11913.52,323,5.62,-0.17,-0.53,10.11,12:7:34,33.825516N,-113.885361W,12124.80,72.11,16
5764928,-32.56,11872.64,355,5.61,-0.31,-0.62,10.11,12:7:35,33.825672N,-113.885078W,12132.10,72.44,16
5765929,-32.40,11887.08,337,5.57,-0.67,-0.36,9.95,12:7:36,33.825836N,-113.884804W,12140.00,72.09,16
5766930,-32.47,11920.46,307,5.57,0.16,0.20,9.97,12:7:37,33.826000N,-113.884506W,12147.40,72.04,16
5767931,-32.53,11944.49,325,5.54,-0.44,-0.68,10.05,12:7:38,33.826168N,-113.884209W,12154.60,71.75,16
5768932,-32.57,11975.90,328,5.53,-0.59,-0.12,10.25,12:7:39,33.826336N,-113.883942W,12162.00,72.18,16
5769933,-32.59,12015.11,360,5.49,-0.44,-0.12,10.13,12:7:40,33.826511N,-113.883659W,12169.50,72.95,16
5770934,-32.59,12040.08,356,5.46,0.20,0.02,10.06,12:7:41,33.826683N,-113.883369W,12176.50,72.94,16
5771935,-32.58,12036.55,341,5.44,-0.11,0.11,10.15,12:7:42,33.826855N,-113.883072W,12183.80,72.88,16
5772936,-32.60,12042.32,316,5.42,-0.75,-0.72,10.06,12:7:43,33.827023N,-113.882790W,12191.60,73.48,16
5773937,-32.66,12039.76,332,5.38,-0.41,-0.86,9.95,12:7:44,33.827202N,-113.882500W,12199.20,74.44,16
5774938,-32.72,12034.31,322,5.37,-0.37,-0.93,10.13,12:7:45,33.827377N,-113.882217W,12207.40,74.39,16
5775939,-32.78,11982.58,333,5.34,-0.64,-0.82,10.08,12:7:46,33.827557N,-113.881935W,12215.00,75.38,16
5776940,-32.61,11983.22,333,5.28,0.38,-0.03,10.23,12:7:47,33.827736N,-113.881638W,12223.40,76.33,16
5777941,-32.43,11976.54,366,5.29,-0.02,-0.30,10.04,12:7:48,33.827923N,-113.881355W,12230.80,77.46,16
5778942,-32.55,12008.40,332,5.29,-0.09,-0.26,10.11,12:7:49,33.828110N,-113.881050W,12238.60,76.33,16
5779943,-32.66,12022.46,333,5.23,0.46,-0.52,10.07,12:7:50,33.828297N,-113.880753W,12245.60,76.05,16
5780944,-32.81,12031.75,289,5.22,0.02,-0.86,9.94,12:7:51,33.828487N,-113.880470W,12253.20,76.28,16
5781945,-32.96,12012.87,376,5.18,0.20,-0.38,9.98,12:7:52,33.828682N,-113.880196W,12260.80,76.74,16
5782946,-32.64,12066.42,340,5.16,0.05,-0.26,10.02,12:7:53,33.828865N,-113.879898W,12268.80,76.37,16
5783947,-32.76,12114.19,361,5.18,-0.07,0.02,10.03,12:7:54,33.829063N,-113.879601W,12276.30,76.45,16
5784948,-32.85,12150.87,337,5.16,-0.05,0.12,10.06,12:7:55,33.829258N,-113.879311W,12283.80,77.80,16
5785949,-32.92,12140.14,347,5.16,-0.35,-0.22,9.97,12:7:56,33.829445N,-113.879013W,12290.60,77.75,16
5786950,-33.00,12131.04,340,5.15,-0.08,0.24,9.89,12:7:57,33.829636N,-113.878708W,12298.40,76.58,16
5787951,-33.08,12125.85,348,5.12,0.10,-0.14,9.89,12:7:58,33.829815N,-113.878426W,12305.30,75.78,16
5788952,-33.14,12123.58,303,5.09,-0.39,-0.86,9.94,12:7:59,33.829998N,-113.878128W,12312.70,75.71,16
5789953,-33.19,12125.21,341,5.04,-0.43,0.02,9.99,12:8:0,33.830173N,-113.877853W,12319.60,74.24,16
5790954,-33.23,12127.48,313,5.01,-0.20,0.20,10.13,12:8:1,33.830349N,-113.877556W,12327.30,73.05,16
5791955,-33.27,12131.37,346,5.03,-0.23,-0.41,10.03,12:8:2,33.830528N,-113.877274W,12333.90,72.87,16
5792956,-33.32,12159.65,338,5.03,-0.56,-0.25,10.09,12:8:3,33.830700N,-113.876991W,12340.90,73.64,16
5793957,-33.38,12151.19,346,5.00,-0.24,-1.16,10.01,12:8:4,33.830875N,-113.876701W,12347.50,73.61,16
5794958,-33.41,12108.69,72,4.91,-0.39,-0.18,10.07,12:8:5,33.831039N,-113.876389W,12354.00,73.84,16
5795959,-33.37,12121.64,345,4.94,-0.21,-0.37,9.93,12:8:6,33.831211N,-113.876099W,12360.30,74.52,16
5796960,-33.29,12134.61,360,4.89,-0.45,-0.45,9.86,12:8:7,33.831387N,-113.875816W,12366.50,74.46,16
5797961,-33.31,12171.39,338,4.86,0.18,-0.20,9.86,12:8:8,33.831562N,-113.875534W,12372.60,73.50,16
5798962,-33.36,12127.15,330,4.85,-0.29,-0.71,9.92,12:8:9,33.831734N,-113.875237W,12378.90,72.73,16
5799963,-33.29,12141.76,270,4.82,-0.33,-0.35,9.58,12:8:10,33.831905N,-113.874954W,12385.00,71.94,16
5800964,-33.30,12157.05,304,4.78,-0.05,-0.28,9.51,12:8:11,33.832073N,-113.874687W,12390.50,70.96,16
5801965,-33.35,12136.89,317,4.71,-0.49,-0.02,9.84,12:8:12,33.832256N,-113.874420W,12396.20,70.91,16
5802966,-33.26,12152.82,312,4.71,-0.04,0.10,9.96,12:8:13,33.832428N,-113.874138W,12400.90,71.42,16
5803967,-33.28,12168.46,341,4.74,-0.27,-0.33,10.16,12:8:14,33.832615N,-113.873878W,12405.30,71.95,16
5804968,-33.30,12193.94,342,4.69,-0.14,-0.11,10.13,12:8:15,33.832817N,-113.873627W,12409.40,72.98,16
5805969,-33.29,12152.17,335,4.69,-0.40,-0.40,9.94,12:8:16,33.833000N,-113.873344W,12413.60,73.92,16
5806970,-33.21,12147.61,304,4.62,-0.26,-0.44,9.70,12:8:17,33.833195N,-113.873077W,12418.40,74.39,16
5807971,-32.83,12166.82,272,4.66,-0.11,-0.30,9.76,12:8:18,33.833393N,-113.872803W,12422.80,74.87,16
5808972,-32.85,12182.17,337,4.61,0.03,-0.09,9.94,12:8:19,33.833591N,-113.872528W,12426.80,76.01,16
5809973,-32.89,12194.26,312,4.61,0.01,0.04,10.03,12:8:20,33.833790N,-113.872246W,12431.20,77.07,16
5810974,-32.89,12204.41,314,4.60,-0.22,-0.26,10.24,12:8:21,33.833988N,-113.871948W,12434.50,77.91,16
5811975,-32.87,12207.69,327,4.62,-0.31,-0.56,10.40,12:8:22,33.834190N,-113.871666W,12438.30,78.68,16
5812976,-32.70,12208.02,345,4.57,-0.20,-0.06,10.39,12:8:23,33.834389N,-113.871361W,12442.60,78.94,16
5813977,-32.49,12196.23,351,4.57,-0.62,-0.14,10.21,12:8:24,33.834576N,-113.871063W,12447.00,78.18,16
5814978,-32.19,12190.99,342,4.59,-0.66,-0.41,10.07,12:8:25,33.834766N,-113.870773W,12451.60,76.04,16
5815979,-31.96,12158.68,25,4.52,-0.13,-0.37,9.98,12:8:26,33.834942N,-113.870476W,12456.10,74.24,16
5816980,-31.72,12173.02,345,4.50,-0.58,0.20,10.04,12:8:27,33.835125N,-113.870193W,12460.70,73.07,16
5817981,-31.86,12204.09,377,4.46,-0.45,0.18,9.99,12:8:28,33.835304N,-113.869904W,12465.10,72.01,16
5818982,-31.96,12233.96,317,4.46,-0.22,0.11,10.10,12:8:29,33.835476N,-113.869629W,12470.40,71.24,16
5819983,-32.01,12243.51,313,4.41,-0.57,-0.25,10.13,12:8:30,33.835640N,-113.869362W,12474.60,70.90,16
5820984,-32.08,12251.75,341,4.38,0.04,-0.13,9.98,12:8:31,33.835812N,-113.869080W,12478.80,71.36,16
5821985,-32.11,12218.19,364,4.36,-0.58,-0.25,9.89,12:8:32,33.835979N,-113.868797W,12483.20,71.09,16
5822986,-31.71,12258.02,333,4.34,0.00,-0.54,9.92,12:8:33,33.836132N,-113.868530W,12487.90,70.72,16
5823987,-31.78,12274.20,350,4.38,-0.02,-0.24,10.06,12:8:34,33.836292N,-113.868240W,12491.80,69.22,16
5824988,-31.82,12278.50,313,4.30,-0.11,-0.46,10.22,12:8:35,33.836464N,-113.867966W,12495.40,68.98,16
5825989,-31.88,12282.81,340,4.28,-0.47,-0.59,10.35,12:8:36,33.836632N,-113.867714W,12499.80,68.94,16
5826990,-31.92,12275.20,353,4.22,-0.07,-0.64,10.44,12:8:37,33.836792N,-113.867447W,12504.00,68.74,16
5827991,-31.67,12309.67,328,4.19,-0.29,-0.43,10.45,12:8:38,33.836937N,-113.867172W,12508.00,69.41,16
5828992,-31.70,12311.34,313,4.18,-0.13,-0.59,10.30,12:8:39,33.837093N,-113.866890W,12512.60,69.91,16
5829993,-31.78,12312.33,306,4.16,-0.16,-0.42,10.16,12:8:40,33.837265N,-113.866608W,12517.20,70.76,16
5830994,-31.87,12313.00,303,4.13,-0.36,-0.30,10.10,12:8:41,33.837429N,-113.866333W,12521.90,71.33,16
5831995,-31.91,12298.39,362,4.13,-0.18,-0.28,10.20,12:8:42,33.837589N,-113.866051W,12526.30,72.00,16
5832996,-31.60,12257.03,131,4.12,0.02,-0.35,10.23,12:8:43,33.837753N,-113.865768W,12532.60,72.75,16
5833997,-31.31,12306.35,346,4.12,0.04,0.15,10.24,12:8:44,33.837917N,-113.865456W,12538.40,73.19,16
5834998,-31.44,12316.66,301,4.11,-0.14,-0.46,10.31,12:8:45,33.838074N,-113.865166W,12543.90,73.55,16
5835999,-31.57,12322.98,297,4.09,0.21,-0.38,10.38,12:8:46,33.838245N,-113.864868W,12549.30,73.57,16
5837000,-31.67,12328.64,282,4.08,-0.29,-0.19,10.30,12:8:47,33.838417N,-113.864586W,12555.40,73.56,16
5838001,-31.72,12285.13,29,4.09,-0.19,-0.42,10.27,12:8:48,33.838581N,-113.864296W,12560.90,73.24,16
5839002,-31.57,12275.86,380,4.04,-0.45,-0.09,10.22,12:8:49,33.838753N,-113.864014W,12568.10,72.88,16
5840003,-31.66,12270.24,353,4.01,-0.52,-0.20,10.19,12:8:50,33.838924N,-113.863716W,12574.70,72.58,16
5841004,-31.73,12322.31,362,3.97,-0.28,0.10,10.25,12:8:51,33.839104N,-113.863434W,12581.80,72.54,16
5842005,-31.79,12382.80,379,3.95,0.16,0.28,10.26,12:8:52,33.839275N,-113.863152W,12588.60,72.57,16
5843006,-31.85,12393.54,351,3.96,-0.29,-0.15,10.20,12:8:53,33.839432N,-113.862877W,12595.50,72.51,16
5844007,-31.91,12362.03,370,3.88,-0.31,-0.25,10.19,12:8:54,33.839592N,-113.862579W,12602.30,71.98,16
5845008,-31.96,12360.02,348,3.91,-0.22,-0.28,10.26,12:8:55,33.839752N,-113.862282W,12609.30,71.04,16
5846009,-32.02,12343.31,31,3.88,-0.24,-0.19,10.05,12:8:56,33.839909N,-113.862000W,12616.70,70.23,16
5847010,-32.08,12357.68,301,3.89,-0.14,0.21,10.11,12:8:57,33.840061N,-113.861725W,12624.30,69.68,16
5848011,-31.96,12374.42,371,3.81,-0.41,-0.60,9.88,12:8:58,33.840214N,-113.861443W,12631.70,68.74,16
5849012,-32.03,12391.19,362,3.82,-0.41,0.26,10.12,12:8:59,33.840363N,-113.861168W,12639.30,68.08,16
5850013,-32.08,12422.50,351,3.80,-0.76,0.08,10.05,12:9:0,33.840508N,-113.860893W,12648.40,67.85,16
5851014,-32.14,12424.52,81,3.72,-0.81,-0.25,9.96,12:9:1,33.840645N,-113.860611W,12655.60,68.04,16
5852015,-32.23,12432.62,335,3.72,-0.32,-0.38,10.00,12:9:2,33.840767N,-113.860313W,12662.60,67.44,16
5853016,-32.27,12440.40,312,3.71,-0.62,0.12,10.16,12:9:3,33.840885N,-113.860031W,12670.20,66.03,16
5854017,-32.31,12450.21,331,3.62,-0.38,-0.42,10.07,12:9:4,33.841007N,-113.859749W,12677.20,65.27,16
5855018,-32.38,12445.13,127,3.63,-0.80,0.13,10.09,12:9:5,33.841129N,-113.859467W,12685.20,65.00,16
5856019,-32.47,12419.13,369,3.62,-0.16,-0.47,10.05,12:9:6,33.841251N,-113.859184W,12692.80,64.28,16
5857020,-32.10,12400.27,343,3.62,0.27,-0.84,10.02,12:9:7,33.841377N,-113.858917W,12700.30,63.26,16
5858021,-31.81,12398.59,358,3.62,-0.04,-0.38,10.14,12:9:8,33.841492N,-113.858650W,12707.90,63.33,16
5859022,-31.62,12416.43,321,3.59,-0.10,-0.10,10.06,12:9:9,33.841614N,-113.858383W,12715.00,63.25,16
5860023,-31.61,12415.75,313,3.60,-0.42,-0.42,10.05,12:9:10,33.841732N,-113.858124W,12722.50,62.48,16
5861024,-31.45,12408.34,21,3.60,-0.27,-0.01,10.13,12:9:11,33.841854N,-113.857857W,12729.80,61.68,16
5862025,-31.52,12408.68,24,3.58,-1.23,-0.19,10.04,12:9:12,33.841972N,-113.857590W,12737.50,61.45,16
5863026,-31.75,12389.18,379,3.53,-0.02,-0.09,10.26,12:9:13,33.842094N,-113.857330W,12745.40,60.47,16
5864027,-31.63,12375.42,29,3.54,0.35,-1.16,10.06,12:9:14,33.842216N,-113.857086W,12753.30,60.53,16
5865028,-31.57,12362.70,45,3.48,0.36,-0.04,10.10,12:9:15,33.842331N,-113.856842W,12761.30,58.47,16
5866029,-31.62,12357.34,25,3.47,-0.95,0.39,10.09,12:9:16,33.842449N,-113.856598W,12768.90,58.48,16
5867030,-31.69,12372.41,260,3.47,-0.77,-0.40,10.20,12:9:17,33.842556N,-113.856346W,12777.20,58.01,16
5868031,-31.84,12406.66,322,3.39,0.33,-0.38,10.05,12:9:18,33.842670N,-113.856102W,12784.90,57.65,16
5869032,-31.99,12450.89,328,3.37,0.07,-0.52,10.10,12:9:19,33.842777N,-113.855858W,12793.10,58.69,16
5870033,-32.12,12484.82,333,3.38,-0.21,-0.44,10.17,12:9:20,33.842903N,-113.855614W,12800.70,59.37,16
5871034,-32.21,12473.95,102,3.33,0.06,0.07,10.13,12:9:21,33.843021N,-113.855370W,12808.50,59.86,16
5872035,-31.86,12529.85,337,3.31,-0.12,0.11,10.00,12:9:22,33.843140N,-113.855118W,12816.80,60.04,16
5873036,-32.03,12551.44,369,3.30,0.25,-0.67,10.00,12:9:23,33.843250N,-113.854851W,12824.50,59.98,16
5874037,-32.17,12569.31,333,3.31,-0.59,-0.74,10.01,12:9:24,33.843372N,-113.854607W,12832.90,59.91,16
5875038,-32.27,12584.46,313,3.27,-0.14,-0.26,10.03,12:9:25,33.843487N,-113.854362W,12841.30,59.61,16
5876039,-32.35,12597.23,326,3.22,-0.64,-0.19,10.01,12:9:26,33.843601N,-113.854103W,12849.10,58.46,16
5877040,-32.41,12608.63,303,3.30,0.26,0.01,9.88,12:9:27,33.843712N,-113.853859W,12856.90,58.00,16
5878041,-32.44,12620.40,323,3.21,-0.48,-0.51,9.95,12:9:28,33.843822N,-113.853622W,12864.10,57.80,16
5879042,-32.46,12645.72,336,3.13,-0.15,0.10,9.77,12:9:29,33.843941N,-113.853363W,12872.80,57.85,16
5880043,-32.52,12656.16,372,3.15,-0.49,-0.21,9.60,12:9:30,33.844048N,-113.853119W,12880.00,57.85,16
5881044,-32.61,12664.52,366,3.12,-0.47,-0.51,9.81,12:9:31,33.844154N,-113.852867W,12887.40,58.59,16
5882045,-32.67,12670.09,348,3.12,-0.47,0.43,9.95,12:9:32,33.844257N,-113.852623W,12894.20,58.54,16
5883046,-32.76,12673.23,345,3.09,-0.85,0.35,9.87,12:9:33,33.844345N,-113.852364W,12900.00,56.71,16
5884047,-32.83,12633.92,351,3.07,-0.79,-0.35,9.87,12:9:34,33.844421N,-113.852112W,12905.50,54.66,16
5885048,-32.49,12657.55,327,3.09,-0.87,-0.44,9.85,12:9:35,33.844486N,-113.851868W,12911.40,53.14,16
5886049,-32.57,12670.44,304,3.07,-0.62,-0.27,9.89,12:9:36,33.844566N,-113.851624W,12917.70,50.81,16
5887050,-32.69,12679.16,309,3.05,-0.69,-0.29,9.97,12:9:37,33.844646N,-113.851402W,12922.90,48.80,16
5888051,-32.78,12687.20,306,3.02,-0.18,-0.31,10.00,12:9:38,33.844715N,-113.851196W,12927.70,48.74,16
5889052,-32.83,12700.49,313,3.03,-0.67,-0.73,10.00,12:9:39,33.844795N,-113.850983W,12933.30,49.99,16
5890053,-32.86,12744.03,360,2.92,-0.03,0.37,10.12,12:9:40,33.844883N,-113.850754W,12939.40,51.10,16
5891054,-32.88,12752.84,351,2.92,0.47,0.22,10.16,12:9:41,33.844955N,-113.850525W,12944.60,51.01,16
5892055,-32.89,12736.64,318,2.95,-0.36,-0.74,10.21,12:9:42,33.845032N,-113.850288W,12949.80,50.64,16
5893056,-32.93,12729.61,289,2.92,-0.14,0.41,10.27,12:9:43,33.845108N,-113.850075W,12955.00,50.94,16
5894057,-32.72,12712.05,318,2.92,-0.13,-0.36,10.28,12:9:44,33.845184N,-113.849846W,12960.70,50.13,16
5895058,-32.73,12711.35,361,2.84,-0.35,-0.59,10.32,12:9:45,33.845272N,-113.849625W,12966.10,49.54,16
5896059,-32.73,12718.37,317,2.84,-0.42,-0.11,10.33,12:9:46,33.845360N,-113.849411W,12971.10,50.56,16
5897060,-32.58,12727.85,297,2.82,0.59,-0.60,10.23,12:9:47,33.845467N,-113.849190W,12977.00,53.30,16
5898061,-32.65,12699.79,376,2.75,-0.07,-0.56,10.20,12:9:48,33.845570N,-113.848976W,12982.60,55.28,16
5899062,-32.31,12663.12,356,2.77,-0.59,-0.64,10.11,12:9:49,33.845673N,-113.848732W,12989.60,56.45,16
5900063,-32.15,12657.55,358,2.72,-0.19,-0.26,10.28,12:9:50,33.845776N,-113.848473W,12996.10,57.56,16
5901064,-31.89,12708.20,346,2.69,-0.45,-0.54,10.22,12:9:51,33.845879N,-113.848228W,13002.20,57.84,16
5902065,-32.07,12745.44,322,2.69,0.11,-0.19,10.28,12:9:52,33.845966N,-113.847977W,13008.80,56.39,16
5903066,-32.20,12747.91,20,2.62,-0.51,-0.52,10.19,12:9:53,33.846066N,-113.847733W,13015.00,54.88,16
5904067,-32.31,12747.55,333,2.64,-0.56,0.15,10.13,12:9:54,33.846149N,-113.847488W,13022.10,55.47,16
5905068,-32.38,12758.84,342,2.60,-0.66,0.03,10.22,12:9:55,33.846252N,-113.847244W,13029.40,55.40,16
5906069,-32.43,12763.07,381,2.60,-0.29,0.03,10.22,12:9:56,33.846355N,-113.847000W,13036.30,57.61,16
5907070,-32.46,12721.88,353,2.58,-0.25,-0.60,10.18,12:9:57,33.846462N,-113.846748W,13043.40,59.76,16
5908071,-32.25,12698.39,31,2.58,0.02,0.16,10.07,12:9:58,33.846581N,-113.846489W,13050.70,61.61,16
5909072,-31.98,12686.50,361,2.55,-0.20,-0.64,10.05,12:9:59,33.846695N,-113.846237W,13058.20,61.81,16
5910073,-32.12,12713.45,332,2.58,-0.25,-0.81,10.04,12:10:0,33.846809N,-113.845963W,13065.80,61.10,16
5911074,-32.27,12760.25,333,2.57,-0.42,-0.42,10.04,12:10:1,33.846920N,-113.845695W,13073.20,60.89,16
5912075,-32.37,12784.29,292,2.55,-0.13,-0.61,10.10,12:10:2,33.847038N,-113.845444W,13080.80,61.54,16
5913076,-32.47,12803.08,332,2.51,-0.11,-0.94,9.89,12:10:3,33.847160N,-113.845184W,13088.30,62.96,16
5914077,-32.55,12818.71,338,2.51,-0.11,0.25,10.16,12:10:4,33.847286N,-113.844925W,13095.40,64.65,16
5915078,-32.52,12799.88,362,2.46,-0.31,-0.11,10.16,12:10:5,33.847420N,-113.844643W,13103.20,66.92,16
5916079,-32.22,12801.66,341,2.45,-0.28,-0.56,9.86,12:10:6,33.847557N,-113.844353W,13110.60,67.97,16
5917080,-32.09,12823.69,289,2.43,-1.50,-0.02,9.84,12:10:7,33.847683N,-113.844070W,13118.70,67.29,16
5918081,-32.29,12842.94,258,2.39,-0.25,-0.58,9.78,12:10:8,33.847809N,-113.843788W,13125.60,65.98,16
5919082,-32.41,12859.74,307,2.40,0.36,-1.23,9.80,12:10:9,33.847950N,-113.843521W,13133.20,66.36,16
5920083,-32.50,12871.91,279,2.39,-0.28,-0.25,9.95,12:10:10,33.848091N,-113.843254W,13140.50,65.25,16
5921084,-32.54,12884.82,337,2.32,-0.08,0.42,10.04,12:10:11,33.848232N,-113.842979W,13146.80,65.01,16
5922085,-32.65,12897.03,342,2.27,-0.67,-0.39,10.10,12:10:12,33.848392N,-113.842743W,13153.30,65.63,16
5923086,-32.72,12954.05,380,2.29,-0.28,0.00,10.10,12:10:13,33.848557N,-113.842484W,13159.30,67.40,16
5924087,-32.75,12980.92,341,2.25,-0.04,-0.05,10.01,12:10:14,33.848721N,-113.842224W,13165.60,66.82,16
5925088,-32.76,12973.65,319,2.28,0.16,0.25,10.17,12:10:15,33.848885N,-113.841972W,13172.00,66.73,16
5926089,-32.77,12972.19,347,2.24,-0.47,-0.36,9.98,12:10:16,33.849041N,-113.841713W,13178.20,65.24,16
5927090,-32.81,12975.83,356,2.21,-0.72,-0.78,10.14,12:10:17,33.849201N,-113.841469W,13184.30,65.43,16
5928091,-32.83,12975.46,335,2.21,0.63,0.06,10.27,12:10:18,33.849358N,-113.841217W,13190.60,64.25,16
5929092,-32.87,12974.01,331,2.13,-0.32,-0.02,10.18,12:10:19,33.849522N,-113.840973W,13197.50,63.26,16
5930093,-32.92,12994.02,371,2.11,-0.35,-0.29,9.91,12:10:20,33.849682N,-113.840744W,13204.40,64.82,16
5931094,-32.95,12988.55,316,2.08,0.27,-0.28,9.81,12:10:21,33.849850N,-113.840500W,13211.50,65.79,16
5932095,-32.82,12987.46,306,2.11,-0.46,0.09,9.83,12:10:22,33.850010N,-113.840240W,13218.20,67.02,16
5933096,-32.85,12988.55,336,2.08,-0.51,-0.51,9.82,12:10:23,33.850178N,-113.839996W,13224.30,68.74,16
5934097,-32.86,12971.10,294,2.06,-0.29,0.41,10.15,12:10:24,33.850357N,-113.839729W,13230.00,71.14,16
5935098,-32.56,12978.37,335,2.06,-0.19,-0.35,10.28,12:10:25,33.850548N,-113.839447W,13236.30,73.81,16
5936099,-32.66,12985.64,307,2.04,-0.26,0.16,10.35,12:10:26,33.850731N,-113.839165W,13241.60,73.85,16
5937100,-32.74,13007.87,374,2.04,-0.03,-0.11,10.28,12:10:27,33.850918N,-113.838898W,13247.40,74.08,16
5938101,-32.76,12981.64,336,1.94,-0.19,-0.17,10.05,12:10:28,33.851112N,-113.838615W,13253.70,74.08,16
5939102,-32.78,12933.79,25,1.98,-0.12,-0.07,10.22,12:10:29,33.851292N,-113.838348W,13259.60,73.50,16
5940103,-32.60,12933.07,357,1.92,-0.46,-0.36,10.12,12:10:30,33.851467N,-113.838066W,13266.70,72.72,16
5941104,-32.66,12913.59,332,1.93,-0.42,0.49,10.18,12:10:31,33.851646N,-113.837784W,13273.40,73.45,16
5942105,-32.55,12925.13,325,1.93,0.14,-0.04,10.19,12:10:32,33.851822N,-113.837494W,13280.80,75.52,16
5943106,-32.30,12941.75,330,1.91,-0.45,-0.16,10.25,12:10:33,33.852009N,-113.837196W,13287.80,76.10,16
5944107,-32.16,12970.74,341,1.88,-0.44,0.07,10.22,12:10:34,33.852188N,-113.836899W,13294.80,76.16,16
5945108,-32.36,12998.03,352,1.85,0.09,-0.56,10.22,12:10:35,33.852364N,-113.836609W,13302.00,76.23,16
5946109,-32.50,13033.10,342,1.80,-0.34,0.05,10.25,12:10:36,33.852558N,-113.836311W,13309.40,75.87,16
5947110,-32.64,13079.02,351,1.82,-0.07,-0.16,10.08,12:10:37,33.852741N,-113.836021W,13315.90,74.41,16
5948111,-32.74,13031.63,336,1.75,-0.12,-0.13,10.24,12:10:38,33.852924N,-113.835739W,13323.00,74.11,16
5949112,-32.48,13028.71,335,1.76,0.07,0.04,10.04,12:10:39,33.853096N,-113.835442W,13330.50,75.15,16
5950113,-32.30,13005.32,20,1.69,-0.38,0.07,10.02,12:10:40,33.853275N,-113.835152W,13337.90,76.70,16
5951114,-32.45,13013.35,314,1.68,-0.23,-0.35,10.19,12:10:41,33.853455N,-113.834854W,13345.50,77.43,16
5952115,-32.28,13002.76,351,1.67,-0.32,-0.29,10.05,12:10:42,33.853649N,-113.834549W,13352.80,78.39,16
5953116,-32.06,13055.10,333,1.66,-0.07,-0.11,10.10,12:10:43,33.853836N,-113.834251W,13360.00,79.02,16
5954117,-32.30,13074.23,322,1.58,-0.15,-0.19,10.05,12:10:44,33.854031N,-113.833931W,13367.30,78.18,16
5955118,-32.51,13090.08,316,1.57,-0.66,-0.11,10.12,12:10:45,33.854225N,-113.833649W,13374.70,77.39,16
5956119,-32.67,13103.38,306,1.58,-0.19,-0.40,10.10,12:10:46,33.854397N,-113.833359W,13381.00,76.68,16
5957120,-32.79,13115.96,307,1.58,0.32,-0.24,9.94,12:10:47,33.854580N,-113.833046W,13388.60,77.15,16
5958121,-32.88,13071.65,21,1.55,-0.25,-0.08,9.95,12:10:48,33.854759N,-113.832741W,13396.20,77.82,16
5959122,-32.85,13073.86,319,1.54,-0.33,-0.32,9.85,12:10:49,33.854942N,-113.832436W,13404.10,77.89,16
5960123,-32.55,13059.88,262,1.53,-0.20,-0.70,10.02,12:10:50,33.855133N,-113.832130W,13411.20,78.13,16
5961124,-32.26,13099.68,356,1.55,-0.29,-0.36,9.80,12:10:51,33.855320N,-113.831833W,13418.10,77.87,16
5962125,-32.43,13144.91,345,1.52,-0.29,-0.45,9.80,12:10:52,33.855507N,-113.831528W,13425.00,77.06,16
5963126,-32.57,13175.84,322,1.51,-0.10,-0.59,10.06,12:10:53,33.855694N,-113.831230W,13431.30,75.90,16
5964127,-32.66,13181.07,260,1.50,-0.38,-0.21,9.91,12:10:54,33.855877N,-113.830948W,13437.60,75.17,16
5965128,-32.79,13185.93,322,1.50,-0.17,-0.27,10.12,12:10:55,33.856068N,-113.830666W,13444.10,75.36,16
5966129,-32.92,13190.04,343,1.46,0.09,-0.16,10.14,12:10:56,33.856258N,-113.830391W,13449.80,76.38,16
5967130,-32.95,13185.55,337,1.45,-0.58,-0.18,10.11,12:10:57,33.856453N,-113.830109W,13456.20,77.67,16
5968131,-32.78,13180.69,331,1.40,-0.19,-0.29,10.06,12:10:58,33.856659N,-113.829826W,13462.90,79.36,16
5969132,-32.87,13181.07,343,1.40,-0.28,-0.25,9.98,12:10:59,33.856869N,-113.829514W,13469.40,81.44,16
5970133,-32.92,13214.40,351,1.38,-0.66,-0.41,10.07,12:11:0,33.857086N,-113.829224W,13474.90,83.86,16
5971134,-32.94,13233.19,365,1.31,-0.08,-0.19,10.19,12:11:1,33.857319N,-113.828918W,13480.80,86.18,16
5972135,-32.94,13194.16,394,1.32,0.14,0.06,10.29,12:11:2,33.857548N,-113.828598W,13485.90,87.91,16
5973136,-32.93,13159.80,397,1.30,-0.06,-0.43,10.29,12:11:3,33.857773N,-113.828262W,13491.90,89.46,16
5974137,-32.91,13125.97,404,1.29,-0.48,-0.29,10.31,12:11:4,33.858002N,-113.827919W,13497.50,90.23,16
5975138,-32.87,13177.33,347,1.23,-0.22,-0.36,10.33,12:11:5,33.858219N,-113.827568W,13503.20,90.20,16
5976139,-32.91,13215.15,330,1.18,-0.05,-0.05,10.21,12:11:6,33.858433N,-113.827225W,13509.00,89.35,16
5977140,-32.93,13232.44,308,1.19,-0.06,-0.51,10.25,12:11:7,33.858635N,-113.826866W,13515.20,88.19,16
5978141,-32.99,13246.38,350,1.21,-0.43,-0.56,10.17,12:11:8,33.858852N,-113.826523W,13522.00,88.16,16
5979142,-33.09,13258.07,313,1.18,-0.58,-0.37,10.07,12:11:9,33.859055N,-113.826180W,13528.80,88.24,16
5980143,-33.17,13267.14,336,1.11,-0.65,-0.28,9.98,12:11:10,33.859261N,-113.825829W,13535.80,89.17,16
5981144,-33.23,13276.60,341,1.14,-0.33,-0.27,9.87,12:11:11,33.859467N,-113.825470W,13542.60,90.63,16
5982145,-33.24,13303.15,333,1.09,-0.13,-0.34,9.87,12:11:12,33.859669N,-113.825111W,13549.90,91.79,16
5983146,-33.27,13311.52,353,1.06,-0.11,0.04,9.81,12:11:13,33.859875N,-113.824745W,13556.90,92.29,16
5984147,-33.34,13316.08,350,1.02,-0.14,0.06,9.89,12:11:14,33.860069N,-113.824356W,13562.70,91.93,16
5985148,-33.39,13345.45,369,1.04,-0.11,-0.22,9.83,12:11:15,33.860264N,-113.823990W,13568.60,91.11,16
5986149,-33.43,13365.74,353,1.02,-0.50,-0.22,9.81,12:11:16,33.860447N,-113.823601W,13573.50,90.22,16
5987150,-33.47,13358.07,323,1.02,-0.38,-0.25,9.81,12:11:17,33.860622N,-113.823235W,13578.90,89.13,16
5988151,-33.54,13351.95,323,1.01,-0.47,-0.09,9.70,12:11:18,33.860802N,-113.822861W,13583.70,87.52,16
5989152,-33.55,13348.89,308,1.00,-0.08,-0.20,9.31,12:11:19,33.860970N,-113.822502W,13588.60,87.14,16
5990153,-33.51,13331.32,343,0.98,-0.02,-0.45,9.66,12:11:20,33.861137N,-113.822128W,13593.80,86.87,16
5991154,-33.15,13346.21,347,0.97,-0.12,-0.33,10.06,12:11:21,33.861317N,-113.821770W,13597.80,86.32,16
5992155,-33.14,13384.15,351,0.86,0.13,-0.42,10.30,12:11:22,33.861488N,-113.821411W,13601.30,85.44,16
5993156,-33.12,13394.15,336,0.92,-0.52,-0.39,10.37,12:11:23,33.861664N,-113.821053W,13604.30,85.48,16
5994157,-33.10,13386.84,330,0.86,-0.59,-0.31,10.24,12:11:24,33.861843N,-113.820694W,13607.60,86.28,16
5995158,-33.14,13380.70,313,0.86,-0.22,0.09,10.03,12:11:25,33.862015N,-113.820335W,13610.70,86.26,16
5996159,-33.14,13378.78,319,0.80,-0.13,-0.20,9.83,12:11:26,33.862190N,-113.819984W,13614.50,86.77,16
5997160,-33.08,13378.39,336,0.77,-0.47,-0.67,9.98,12:11:27,33.862381N,-113.819611W,13618.80,86.64,16
5998161,-33.07,13379.93,340,0.78,-0.89,-0.36,10.17,12:11:28,33.862568N,-113.819252W,13622.60,91.10,16
5999162,-33.09,13379.54,308,0.73,-0.48,0.00,10.25,12:11:29,33.862759N,-113.818871W,13625.10,92.63,16
6000163,-33.08,13379.16,360,0.71,-0.75,-0.03,10.32,12:11:30,33.862953N,-113.818481W,13628.80,93.24,16
6001164,-33.03,13379.54,331,0.71,-0.22,-0.28,10.21,12:11:31,33.863144N,-113.818100W,13632.20,94.23,16
6002165,-32.95,13348.89,24,0.70,-0.12,-0.22,10.04,12:11:32,33.863331N,-113.817719W,13635.90,94.21,16
6003166,-32.49,13406.86,355,0.64,-0.20,-0.38,9.85,12:11:33,33.863518N,-113.817322W,13639.90,95.28,16
6004167,-32.51,13405.70,358,0.63,0.01,-0.22,9.74,12:11:34,33.863701N,-113.816925W,13644.60,90.35,16
6005168,-32.51,13403.01,328,0.61,-0.19,-0.54,9.85,12:11:35,33.863876N,-113.816536W,13647.40,89.13,16
6006169,-32.51,13344.30,357,0.55,-0.20,-0.38,10.13,12:11:36,33.864048N,-113.816177W,13651.30,88.22,16
