time_since_start,bme_temp,bme_alt,uv,ism_temp,acc_x,acc_y,acc_z,gps_time,latitude,longitude,gps_alt,speed,sats
17118270,28.95,1061.14,59,20.85,-8.58,4.21,2.79,3:16:47,34.219368N,-112.948669W,1117.70,0.02,15
17119271,28.94,1061.05,91,20.89,-8.48,4.00,2.84,3:16:48,34.219368N,-112.948669W,1117.70,0.00,15
17120272,28.94,1061.14,111,20.88,-8.40,4.11,2.77,3:16:49,34.219368N,-112.948669W,1117.70,0.01,15
17121273,28.94,1061.05,93,20.90,-8.54,4.17,2.73,3:16:50,34.219368N,-112.948669W,1117.70,0.00,15
17122274,28.95,1060.96,89,20.89,-8.60,4.24,2.82,3:16:51,34.219368N,-112.948669W,1117.70,0.00,15
17123275,28.94,1060.96,96,20.86,-8.53,4.12,2.88,3:16:52,34.219368N,-112.948669W,1117.70,0.01,15
17124276,28.94,1061.05,111,20.90,-8.27,4.34,2.75,3:16:53,34.219368N,-112.948669W,1117.70,0.01,15
17125277,28.93,1061.05,89,20.90,-8.48,4.22,2.78,3:16:54,34.219368N,-112.948669W,1117.70,0.02,15
17126278,28.92,1061.14,114,20.92,-8.44,4.12,2.84,3:16:55,34.219368N,-112.948669W,1117.70,0.01,15
17127279,28.92,1061.14,112,20.91,-8.68,4.21,2.89,3:16:56,34.219368N,-112.948669W,1117.70,0.00,15
17128280,28.93,1061.24,86,20.91,-8.69,4.12,2.72,3:16:57,34.219368N,-112.948669W,1117.70,0.01,15
17129281,28.93,1061.33,106,20.91,-8.53,4.16,2.81,3:16:58,34.219368N,-112.948669W,1117.70,0.01,15
17130282,28.93,1061.14,49,20.89,-8.51,4.23,2.79,3:16:59,34.219368N,-112.948669W,1117.70,0.02,15
17131283,28.93,1061.05,91,20.89,-8.57,4.13,2.80,3:17:0,34.219368N,-112.948669W,1117.70,0.01,15
17132284,28.94,1061.05,117,20.88,-8.47,4.19,2.79,3:17:1,34.219368N,-112.948669W,1117.70,0.03,15
17133285,28.95,1060.87,106,20.90,-8.33,4.25,2.79,3:17:2,34.219368N,-112.948669W,1117.70,0.01,15
17134286,28.96,1061.14,101,20.93,-8.40,4.28,2.75,3:17:3,34.219368N,-112.948669W,1117.70,0.01,15
17135287,28.96,1061.14,99,20.91,-8.49,4.18,2.83,3:17:4,34.219368N,-112.948669W,1117.70,0.01,15
17136288,28.96,1061.05,116,20.91,-8.49,4.13,2.75,3:17:5,34.219368N,-112.948669W,1117.70,0.00,15
17137289,28.97,1061.05,118,20.94,-8.16,4.24,2.78,3:17:6,34.219368N,-112.948669W,1117.70,0.01,15
17138290,28.98,1061.05,112,20.89,-8.65,4.05,2.82,3:17:7,34.219368N,-112.948669W,1117.70,0.00,15
17139291,28.98,1061.05,109,20.93,-8.49,4.10,2.78,3:17:8,34.219368N,-112.948669W,1117.70,0.01,14
17140292,28.99,1060.96,114,20.91,-8.41,4.16,2.70,3:17:9,34.219368N,-112.948669W,1117.70,0.00,15
17141293,29.00,1060.78,89,20.91,-8.36,4.42,2.74,3:17:10,34.219368N,-112.948669W,1117.70,0.01,15
17142294,28.99,1060.96,103,20.91,-8.51,4.58,2.89,3:17:11,34.219368N,-112.948669W,1117.70,0.01,15
17143295,28.99,1060.87,104,20.91,-8.52,4.16,2.67,3:17:12,34.219368N,-112.948669W,1117.70,0.01,15
17144296,28.97,1060.87,116,20.95,-8.32,4.15,2.75,3:17:13,34.219368N,-112.948669W,1117.70,0.00,15
17145297,28.96,1060.87,112,20.97,-8.69,4.12,2.80,3:17:14,34.219368N,-112.948669W,1117.70,0.01,15
17146298,28.96,1060.96,118,20.95,-8.37,4.13,2.73,3:17:15,34.219368N,-112.948669W,1117.70,0.01,15
17147299,28.95,1060.87,88,20.91,-8.44,4.26,2.77,3:17:16,34.219368N,-112.948669W,1117.70,0.01,15
17148300,28.95,1061.05,89,20.96,-8.46,4.27,2.76,3:17:17,34.219368N,-112.948669W,1117.70,0.01,15
17149301,28.94,1061.05,121,20.96,-8.30,4.19,2.80,3:17:18,34.219368N,-112.948669W,1117.70,0.00,15
17150302,28.94,1060.96,117,20.92,-8.28,4.23,2.80,3:17:19,34.219368N,-112.948669W,1117.70,0.00,15
17151303,28.92,1061.05,114,20.92,-8.45,4.12,2.75,3:17:20,34.219368N,-112.948669W,1117.60,0.00,15
17152304,28.91,1060.96,119,20.88,-8.55,4.14,2.83,3:17:21,34.219368N,-112.948669W,1117.60,0.00,15
17153305,28.90,1060.87,117,20.92,-8.58,4.14,2.74,3:17:22,34.219368N,-112.948669W,1117.60,0.01,15
17154306,28.89,1061.05,108,20.93,-8.53,4.26,2.75,3:17:23,34.219368N,-112.948669W,1117.60,0.01,15
17155307,28.89,1061.14,113,20.92,-8.54,4.20,2.78,3:17:24,34.219368N,-112.948669W,1117.60,0.01,15
17156308,28.87,1061.14,114,20.95,-8.49,4.12,2.76,3:17:25,34.219368N,-112.948669W,1117.60,0.01,15
17157309,28.86,1061.05,65,20.91,-8.48,4.14,2.82,3:17:27,34.219368N,-112.948662W,1117.60,0.01,15
17158310,28.85,1061.05,63,20.92,-8.46,4.20,2.77,3:17:27,34.219368N,-112.948662W,1117.60,0.00,15
17159311,28.85,1060.96,63,20.90,-8.45,4.17,2.79,3:17:28,34.219368N,-112.948662W,1117.60,0.01,15
17160312,28.85,1060.87,77,20.98,-8.50,4.15,2.80,3:17:29,34.219368N,-112.948662W,1117.60,0.00,15
17161314,28.85,1060.87,64,20.95,-8.47,4.13,2.79,3:17:31,34.219368N,-112.948662W,1117.60,0.02,15
17162314,28.85,1061.05,63,20.99,-8.49,4.12,2.78,3:17:32,34.219368N,-112.948662W,1117.60,0.01,15
17163315,28.86,1061.14,79,20.92,-8.54,4.13,2.79,3:17:33,34.219368N,-112.948662W,1117.60,0.01,15
17164316,28.85,1061.14,63,20.91,-8.43,4.18,2.79,3:17:34,34.219368N,-112.948662W,1117.60,0.01,15
17165317,28.85,1061.05,55,21.01,-8.46,4.17,2.78,3:17:35,34.219368N,-112.948662W,1117.60,0.01,15
17166318,28.84,1061.05,69,20.95,-8.51,4.16,2.80,3:17:36,34.219368N,-112.948662W,1117.60,0.01,15
17167319,28.83,1060.96,45,20.93,-8.46,4.13,2.77,3:17:37,34.219368N,-112.948662W,1117.60,0.00,15
17168320,28.84,1060.87,102,20.92,-8.44,4.23,2.76,3:17:37,34.219368N,-112.948662W,1117.60,0.02,15
17169321,28.84,1060.96,79,20.93,-8.41,4.15,2.73,3:17:39,34.219368N,-112.948662W,1117.60,0.01,15
17170322,28.82,1060.96,106,20.95,-8.67,4.06,2.75,3:17:39,34.219368N,-112.948662W,1117.60,0.00,15
17171323,28.80,1060.96,102,20.92,-8.65,4.16,2.75,3:17:41,34.219368N,-112.948662W,1117.60,0.01,16
17172324,28.79,1061.05,107,20.96,-8.35,4.16,2.81,3:17:42,34.219368N,-112.948662W,1117.60,0.01,16
17173325,28.78,1061.05,116,20.96,-8.28,4.24,2.82,3:17:42,34.219368N,-112.948662W,1117.60,0.00,16
17174326,28.77,1061.05,117,20.97,-8.34,4.35,2.74,3:17:43,34.219368N,-112.948662W,1117.60,0.01,16
17175327,28.76,1060.96,112,20.95,-8.53,4.37,2.79,3:17:45,34.219368N,-112.948662W,1117.60,0.01,16
17176328,28.75,1060.87,114,20.95,-8.29,4.39,2.74,3:17:46,34.219368N,-112.948662W,1117.60,0.01,16
17177329,28.75,1060.87,86,20.96,-8.38,4.15,2.76,3:17:47,34.219368N,-112.948662W,1117.60,0.01,16
17178330,28.74,1060.78,64,20.97,-8.50,4.11,2.77,3:17:48,34.219368N,-112.948662W,1117.60,0.00,16
17179331,28.74,1060.78,59,20.97,-8.45,4.23,2.79,3:17:49,34.219368N,-112.948662W,1117.60,0.01,16
17180332,28.75,1060.68,70,21.01,-8.44,4.20,2.79,3:17:50,34.219368N,-112.948662W,1117.60,0.00,16
17181333,28.76,1060.68,82,21.02,-8.46,4.14,2.78,3:17:51,34.219368N,-112.948662W,1117.60,0.00,16
17182334,28.77,1060.68,108,21.02,-8.50,4.14,2.80,3:17:52,34.219368N,-112.948662W,1117.60,0.01,16
17183335,28.78,1060.87,72,21.03,-8.55,4.13,2.79,3:17:53,34.219368N,-112.948662W,1117.60,0.00,16
17184336,28.79,1060.87,43,20.96,-8.52,4.12,2.78,3:17:54,34.219368N,-112.948662W,1117.60,0.01,16
17185337,28.79,1060.96,72,21.04,-8.49,4.20,2.77,3:17:55,34.219368N,-112.948662W,1117.60,0.01,16
17186338,28.81,1061.05,67,20.99,-8.49,4.14,2.80,3:17:56,34.219368N,-112.948662W,1117.60,0.01,16
17187339,28.82,1060.96,65,21.00,-8.45,4.17,2.78,3:17:57,34.219368N,-112.948662W,1117.60,0.01,16
17188340,28.82,1060.87,67,21.00,-8.47,4.16,2.79,3:17:58,34.219368N,-112.948662W,1117.60,0.01,16
17189341,28.83,1060.87,75,21.04,-8.50,4.16,2.79,3:17:59,34.219368N,-112.948662W,1117.60,0.01,16
17190342,28.84,1061.05,109,21.00,-8.55,4.18,2.83,3:18:0,34.219368N,-112.948662W,1117.60,0.01,16
17191343,28.85,1060.87,111,21.04,-8.44,4.20,2.72,3:18:1,34.219368N,-112.948662W,1117.60,0.01,16
17192344,28.86,1060.87,104,21.05,-8.35,4.20,2.73,3:18:2,34.219368N,-112.948662W,1117.60,0.02,16
17193345,28.86,1060.78,102,21.01,-8.34,4.35,2.80,3:18:3,34.219368N,-112.948662W,1117.60,0.01,16
17194346,28.86,1060.78,106,20.99,-8.43,4.27,2.81,3:18:4,34.219368N,-112.948662W,1117.60,0.01,16
17195347,28.86,1060.96,91,21.03,-8.35,4.19,2.78,3:18:5,34.219368N,-112.948662W,1117.60,0.01,16
17196348,28.87,1060.78,113,21.03,-8.45,4.09,2.76,3:18:6,34.219368N,-112.948662W,1117.60,0.01,16
17197349,28.88,1060.87,96,20.99,-8.46,4.16,2.80,3:18:7,34.219368N,-112.948662W,1117.60,0.02,16
17198350,28.90,1060.96,87,20.96,-8.41,4.21,2.75,3:18:8,34.219368N,-112.948662W,1117.60,0.01,16
17199351,28.90,1061.05,102,21.05,-8.39,4.22,2.84,3:18:9,34.219368N,-112.948662W,1117.60,0.01,16
17200352,28.91,1061.14,109,21.02,-8.38,4.20,2.78,3:18:10,34.219368N,-112.948662W,1117.60,0.01,16
17201353,28.92,1061.05,96,21.05,-8.38,4.22,2.75,3:18:11,34.219368N,-112.948662W,1117.60,0.01,16
17202354,28.94,1061.05,107,20.99,-8.47,4.22,2.82,3:18:12,34.219368N,-112.948662W,1117.60,0.01,16
17203355,28.96,1061.05,54,21.04,-8.43,4.16,2.79,3:18:13,34.219368N,-112.948662W,1117.60,0.01,16
17204356,28.97,1060.96,77,20.99,-8.54,4.14,2.80,3:18:14,34.219368N,-112.948662W,1117.60,0.01,16
17205357,28.98,1060.96,50,21.03,-8.45,4.17,2.78,3:18:15,34.219368N,-112.948662W,1117.60,0.01,16
17206358,28.98,1060.87,50,21.07,-8.46,4.19,2.79,3:18:16,34.219368N,-112.948662W,1117.60,0.02,16
17207359,29.00,1060.78,69,21.03,-8.51,4.12,2.79,3:18:17,34.219368N,-112.948662W,1117.60,0.01,16
17208360,29.02,1060.78,70,21.08,-8.52,4.08,2.79,3:18:18,34.219368N,-112.948662W,1117.60,0.02,16
17209361,29.04,1060.68,81,21.04,-8.51,4.10,2.79,3:18:19,34.219368N,-112.948662W,1117.60,0.01,15
17210362,29.07,1060.68,79,21.05,-8.51,4.12,2.79,3:18:20,34.219368N,-112.948662W,1117.60,0.03,16
17211363,29.10,1060.59,70,21.07,-8.48,4.15,2.80,3:18:21,34.219368N,-112.948662W,1117.60,0.01,16
17212364,29.13,1060.87,104,21.06,-8.40,4.18,2.79,3:18:22,34.219368N,-112.948662W,1117.60,0.02,16
17213365,29.15,1060.96,69,21.04,-8.44,4.23,2.80,3:18:23,34.219368N,-112.948662W,1117.60,0.00,16
17214366,29.15,1061.05,101,21.04,-8.37,4.28,2.80,3:18:24,34.219368N,-112.948662W,1117.60,0.02,16
17215367,29.14,1060.87,102,21.07,-8.42,4.24,2.72,3:18:25,34.219368N,-112.948662W,1117.60,0.01,16
17216368,29.13,1060.87,103,21.05,-8.42,4.11,2.80,3:18:26,34.219368N,-112.948662W,1117.60,0.03,16
17217369,29.13,1060.96,102,21.05,-8.48,4.28,2.79,3:18:27,34.219368N,-112.948662W,1117.60,0.01,16
17218370,29.12,1061.05,99,21.04,-8.43,4.27,2.74,3:18:28,34.219368N,-112.948662W,1117.60,0.00,16
17219371,29.10,1061.14,88,21.10,-8.36,4.25,2.81,3:18:29,34.219368N,-112.948662W,1117.60,0.01,16
17220372,29.08,1061.14,65,21.05,-8.46,4.19,2.80,3:18:30,34.219368N,-112.948662W,1117.60,0.01,16
17221373,29.06,1061.14,93,21.08,-8.49,4.10,2.78,3:18:31,34.219368N,-112.948662W,1117.60,0.00,16
17222374,29.06,1061.05,70,21.08,-8.50,4.07,2.79,3:18:32,34.219368N,-112.948662W,1117.60,0.01,16
17223375,29.07,1061.05,87,21.08,-8.50,4.11,2.79,3:18:33,34.219368N,-112.948662W,1117.60,0.01,16
17224376,29.08,1061.14,88,21.07,-8.50,4.18,2.79,3:18:34,34.219368N,-112.948662W,1117.60,0.01,16
17225377,29.09,1061.24,84,21.08,-8.42,4.16,2.80,3:18:35,34.219368N,-112.948662W,1117.60,0.00,16
17226378,29.10,1061.14,72,21.07,-8.46,4.15,2.78,3:18:36,34.219368N,-112.948662W,1117.60,0.02,16
17227379,29.10,1061.33,101,21.07,-8.41,4.19,2.75,3:18:37,34.219368N,-112.948662W,1117.60,0.00,16
17228380,29.10,1061.05,75,21.09,-8.48,4.14,2.80,3:18:38,34.219368N,-112.948662W,1117.60,0.02,16
17229381,29.10,1060.96,97,21.08,-8.42,4.20,2.79,3:18:39,34.219368N,-112.948662W,1117.60,0.00,16
17230382,29.10,1061.05,107,21.09,-8.54,4.17,2.82,3:18:40,34.219368N,-112.948662W,1117.60,0.00,16
17231383,29.11,1061.05,103,21.09,-8.40,4.17,2.78,3:18:41,34.219368N,-112.948662W,1117.60,0.00,16
17232384,29.12,1061.05,73,21.10,-8.46,4.12,2.80,3:18:42,34.219368N,-112.948662W,1117.60,0.01,16
17233385,29.12,1061.05,83,21.10,-8.47,4.21,2.79,3:18:43,34.219368N,-112.948662W,1117.60,0.00,16
17234386,29.13,1061.05,109,21.07,-8.44,4.21,2.79,3:18:44,34.219368N,-112.948662W,1117.60,0.01,16
17235387,29.14,1060.87,94,21.11,-8.39,4.22,2.77,3:18:45,34.219368N,-112.948662W,1117.60,0.01,16
17236388,29.16,1060.68,106,21.11,-8.45,4.30,2.77,3:18:46,34.219368N,-112.948662W,1117.60,0.02,16
17237389,29.17,1060.59,89,21.07,-8.52,4.20,2.80,3:18:47,34.219368N,-112.948662W,1117.60,0.00,16
17238390,29.19,1060.68,107,21.09,-8.49,4.13,2.77,3:18:48,34.219368N,-112.948662W,1117.60,0.01,16
17239391,29.20,1060.87,109,21.09,-8.54,4.13,2.78,3:18:49,34.219368N,-112.948662W,1117.60,0.00,16
17240392,29.22,1060.87,88,21.08,-8.48,4.20,2.80,3:18:50,34.219368N,-112.948662W,1117.60,0.01,16
17241393,29.22,1060.78,75,21.10,-8.43,4.13,2.80,3:18:51,34.219368N,-112.948662W,1117.60,0.02,16
17242394,29.23,1060.78,78,21.09,-8.51,4.13,2.80,3:18:52,34.219368N,-112.948662W,1117.50,0.00,16
17243395,29.25,1060.78,75,21.12,-8.46,4.12,2.80,3:18:53,34.219368N,-112.948662W,1117.50,0.02,16
17244396,29.26,1061.05,102,21.11,-8.45,4.13,2.80,3:18:54,34.219368N,-112.948662W,1117.50,0.01,16
17245397,29.27,1061.05,87,21.09,-8.50,4.10,2.79,3:18:55,34.219368N,-112.948662W,1117.50,0.01,16
17246398,29.29,1061.05,91,21.12,-8.45,4.11,2.78,3:18:56,34.219368N,-112.948662W,1117.50,0.02,16
17247399,29.31,1060.96,86,21.12,-8.50,4.10,2.80,3:18:57,34.219368N,-112.948662W,1117.50,0.01,16
17248400,29.32,1061.05,81,21.12,-8.50,4.14,2.80,3:18:58,34.219368N,-112.948662W,1117.50,0.01,16
17249401,29.33,1061.14,98,21.10,-8.55,4.09,2.82,3:18:59,34.219368N,-112.948662W,1117.50,0.01,16
17250402,29.35,1060.96,107,21.14,-8.38,4.20,2.74,3:19:0,34.219368N,-112.948662W,1117.50,0.00,16
17251403,29.37,1060.96,103,21.09,-8.37,4.24,2.80,3:19:1,34.219368N,-112.948662W,1117.50,0.01,16
17252404,29.39,1060.96,98,21.09,-8.47,4.14,2.77,3:19:2,34.219368N,-112.948662W,1117.50,0.01,16
17253405,29.41,1061.24,69,21.14,-8.38,4.21,2.76,3:19:3,34.219368N,-112.948662W,1117.50,0.01,16
17254407,29.42,1061.14,94,21.10,-8.46,4.18,2.78,3:19:4,34.219368N,-112.948662W,1117.50,0.01,16
17255407,29.43,1061.14,102,21.09,-8.47,4.15,2.78,3:19:5,34.219368N,-112.948662W,1117.50,0.01,16
17256408,29.44,1061.24,101,21.10,-8.43,4.19,2.79,3:19:6,34.219368N,-112.948662W,1117.50,0.01,16
17257409,29.45,1061.24,88,21.12,-8.48,4.20,2.79,3:19:7,34.219368N,-112.948662W,1117.50,0.01,16
17258410,29.46,1061.24,96,21.13,-8.43,4.19,2.79,3:19:8,34.219368N,-112.948662W,1117.50,0.01,16
17259411,29.46,1061.24,97,21.11,-8.50,4.15,2.80,3:19:9,34.219368N,-112.948662W,1117.50,0.01,16
17260412,29.47,1061.33,97,21.11,-8.47,4.15,2.78,3:19:10,34.219368N,-112.948662W,1117.50,0.01,16
17261413,29.48,1061.42,98,21.12,-8.47,4.14,2.80,3:19:11,34.219368N,-112.948662W,1117.50,0.01,16
17262414,29.48,1061.33,102,21.11,-8.50,4.13,2.79,3:19:12,34.219368N,-112.948662W,1117.50,0.00,16
17263415,29.50,1061.24,101,21.14,-8.43,4.21,2.81,3:19:13,34.219368N,-112.948662W,1117.50,0.02,16
17264416,29.52,1061.14,101,21.13,-8.41,4.22,2.78,3:19:14,34.219368N,-112.948662W,1117.50,0.00,16
17265417,29.54,1061.14,99,21.12,-8.46,4.08,2.80,3:19:15,34.219368N,-112.948662W,1117.50,0.01,16
17266418,29.56,1061.05,87,21.09,-8.30,4.17,2.79,3:19:16,34.219368N,-112.948662W,1117.40,0.00,16
17267419,29.57,1061.24,73,21.11,-8.51,4.20,2.81,3:19:17,34.219368N,-112.948662W,1117.50,0.01,16
17268420,29.58,1061.14,98,21.13,-8.51,4.17,2.81,3:19:18,34.219368N,-112.948662W,1117.40,0.01,16
17269421,29.60,1061.24,88,21.11,-8.45,4.13,2.79,3:19:19,34.219368N,-112.948662W,1117.40,0.01,16
17270422,29.61,1061.33,81,21.14,-8.52,4.08,2.79,3:19:20,34.219368N,-112.948662W,1117.40,0.00,16
17271423,29.62,1061.33,74,21.12,-8.54,4.09,2.80,3:19:21,34.219368N,-112.948662W,1117.40,0.00,16
17272424,29.64,1061.33,102,21.17,-8.46,4.14,2.78,3:19:22,34.219368N,-112.948662W,1117.40,0.00,16
17273425,29.66,1061.42,86,21.13,-8.44,4.24,2.79,3:19:23,34.219368N,-112.948662W,1117.40,0.01,16
17274426,29.67,1061.24,98,21.13,-8.48,4.16,2.74,3:19:24,34.219368N,-112.948662W,1117.40,0.01,16
17275427,29.69,1061.24,103,21.13,-8.51,4.17,2.78,3:19:25,34.219368N,-112.948662W,1117.40,0.01,16
17276428,29.70,1061.33,99,21.12,-8.49,4.08,2.81,3:19:26,34.219368N,-112.948662W,1117.40,0.00,16
17277429,29.71,1061.14,97,21.13,-8.51,4.09,2.79,3:19:27,34.219368N,-112.948662W,1117.40,0.00,16
17278430,29.73,1061.14,103,21.15,-8.51,4.21,2.78,3:19:28,34.219368N,-112.948662W,1117.40,0.02,16
17279431,29.74,1060.96,103,21.13,-8.59,4.19,2.83,3:19:29,34.219368N,-112.948662W,1117.40,0.01,16
17280432,29.76,1060.96,102,21.12,-8.56,4.19,2.79,3:19:30,34.219368N,-112.948662W,1117.40,0.00,16
17281433,29.77,1060.87,79,21.12,-8.48,4.26,2.74,3:19:31,34.219368N,-112.948662W,1117.40,0.00,16
17282434,29.79,1060.87,92,21.16,-8.55,4.17,2.81,3:19:32,34.219368N,-112.948662W,1117.40,0.01,16
17283435,29.81,1060.78,92,21.15,-8.48,4.19,2.79,3:19:33,34.219368N,-112.948662W,1117.40,0.01,16
17284436,29.82,1060.78,77,21.16,-8.41,4.12,2.81,3:19:34,34.219368N,-112.948662W,1117.40,0.01,16
17285437,29.83,1060.87,99,21.14,-8.48,4.18,2.79,3:19:35,34.219368N,-112.948662W,1117.40,0.02,16
17286438,29.83,1060.87,91,21.16,-8.37,4.24,2.77,3:19:36,34.219368N,-112.948662W,1117.40,0.01,16
17287439,29.84,1060.78,101,21.15,-8.44,4.31,2.83,3:19:37,34.219368N,-112.948662W,1117.40,0.02,16
17288440,29.85,1060.78,63,21.13,-8.46,4.17,2.80,3:19:38,34.219368N,-112.948662W,1117.40,0.00,16
17289441,29.87,1060.78,103,21.14,-8.47,4.10,2.79,3:19:39,34.219368N,-112.948662W,1117.40,0.01,16
17290442,29.88,1060.96,104,21.15,-8.43,4.12,2.76,3:19:40,34.219368N,-112.948662W,1117.40,0.02,16
17291443,29.90,1061.05,63,21.17,-8.51,4.13,2.86,3:19:41,34.219368N,-112.948662W,1117.40,0.01,16
17292444,29.91,1061.05,87,21.16,-8.38,4.18,2.77,3:19:42,34.219368N,-112.948662W,1117.40,0.01,16
17293445,29.93,1061.05,102,21.14,-8.43,4.14,2.83,3:19:43,34.219368N,-112.948662W,1117.40,0.01,15
17294446,29.94,1061.05,78,21.16,-8.56,4.10,2.82,3:19:44,34.219368N,-112.948662W,1117.40,0.00,15
17295447,29.95,1060.96,89,21.15,-8.37,4.30,2.75,3:19:45,34.219368N,-112.948662W,1117.40,0.02,15
17296448,29.95,1060.87,79,21.14,-8.47,4.24,2.84,3:19:46,34.219368N,-112.948662W,1117.40,0.01,15
17297449,29.96,1060.78,84,21.16,-8.40,4.31,2.77,3:19:47,34.219368N,-112.948662W,1117.40,0.00,15
17298450,29.97,1060.59,97,21.14,-8.37,4.40,2.83,3:19:48,34.219368N,-112.948662W,1117.40,0.01,15
17299451,29.97,1060.87,99,21.12,-8.51,4.27,2.82,3:19:49,34.219368N,-112.948662W,1117.40,0.01,15
17300452,29.98,1060.78,101,21.17,-8.43,4.24,2.77,3:19:50,34.219368N,-112.948662W,1117.40,0.01,15
17301453,29.98,1060.96,106,21.15,-8.43,4.13,2.80,3:19:51,34.219368N,-112.948662W,1117.40,0.01,15
17302454,29.98,1061.05,98,21.15,-8.51,4.16,2.81,3:19:52,34.219368N,-112.948662W,1117.40,0.00,15
17303455,29.99,1061.24,79,21.18,-8.41,4.12,2.87,3:19:53,34.219368N,-112.948662W,1117.40,0.00,15
17304456,30.00,1061.33,55,21.16,-8.37,4.14,2.75,3:19:54,34.219368N,-112.948662W,1117.40,0.01,15
17305457,30.00,1061.33,97,21.18,-8.47,4.13,2.80,3:19:55,34.219368N,-112.948662W,1117.40,0.01,16
17306458,30.00,1061.33,88,21.17,-8.48,4.08,2.77,3:19:56,34.219368N,-112.948662W,1117.40,0.01,16
17307459,30.00,1061.14,96,21.16,-8.41,4.23,2.79,3:19:57,34.219368N,-112.948662W,1117.40,0.02,16
17308460,30.01,1061.14,79,21.20,-8.43,4.21,2.78,3:19:58,34.219368N,-112.948662W,1117.40,0.01,16
17309461,30.02,1061.14,92,21.15,-8.34,4.28,2.79,3:19:59,34.219368N,-112.948662W,1117.40,0.01,15
17310462,30.03,1061.33,94,21.16,-8.43,4.35,2.71,3:20:0,34.219368N,-112.948662W,1117.40,0.00,15
17311463,30.04,1061.24,81,21.21,-8.33,4.23,2.81,3:20:1,34.219368N,-112.948662W,1117.40,0.02,15
17312464,30.06,1061.24,97,21.17,-8.42,4.18,2.74,3:20:2,34.219368N,-112.948662W,1117.40,0.01,15
17313465,30.06,1061.14,84,21.15,-8.41,4.19,2.79,3:20:3,34.219368N,-112.948662W,1117.40,0.01,15
17314466,30.07,1061.14,89,21.19,-8.59,4.04,2.82,3:20:4,34.219368N,-112.948662W,1117.40,0.01,15
17315467,30.08,1061.05,92,21.20,-8.40,4.19,2.79,3:20:5,34.219368N,-112.948662W,1117.40,0.02,15
17316468,30.08,1060.87,77,21.20,-8.16,4.11,2.88,3:20:6,34.219368N,-112.948662W,1117.40,0.01,15
17317469,30.08,1060.87,99,21.19,-8.62,4.13,2.80,3:20:7,34.219368N,-112.948662W,1117.40,0.02,15
17318470,30.08,1061.14,94,21.16,-8.57,4.07,2.75,3:20:8,34.219368N,-112.948662W,1117.40,0.02,15
17319471,30.08,1061.05,106,21.18,-8.69,4.18,2.86,3:20:9,34.219368N,-112.948662W,1117.40,0.00,15
17320472,30.07,1061.05,82,21.20,-8.57,4.02,2.80,3:20:10,34.219368N,-112.948662W,1117.40,0.02,15
17321473,30.06,1061.05,97,21.16,-8.45,4.03,2.79,3:20:11,34.219368N,-112.948662W,1117.40,0.01,15
17322474,30.06,1060.87,96,21.23,-8.40,4.19,2.79,3:20:12,34.219368N,-112.948662W,1117.40,0.01,15
17323475,30.06,1060.96,93,21.21,-8.49,4.13,2.81,3:20:13,34.219368N,-112.948662W,1117.40,0.01,15
17324476,30.07,1061.05,98,21.24,-8.55,4.14,2.78,3:20:14,34.219368N,-112.948662W,1117.40,0.00,15
17325477,30.08,1060.96,81,21.21,-8.51,4.16,2.78,3:20:15,34.219368N,-112.948662W,1117.40,0.01,15
17326478,30.09,1060.87,106,21.18,-8.43,4.23,2.81,3:20:16,34.219368N,-112.948662W,1117.40,0.01,15
17327479,30.09,1060.96,94,21.16,-8.44,4.13,2.79,3:20:17,34.219368N,-112.948662W,1117.40,0.01,15
17328480,30.09,1060.96,89,21.18,-8.42,4.14,2.80,3:20:18,34.219368N,-112.948662W,1117.40,0.01,14
17329481,30.09,1060.96,63,21.18,-8.47,4.22,2.79,3:20:19,34.219368N,-112.948662W,1117.40,0.01,15
17330482,30.08,1061.05,57,21.23,-8.50,4.18,2.80,3:20:20,34.219368N,-112.948662W,1117.40,0.00,15
17331483,30.08,1061.05,82,21.21,-8.52,4.10,2.79,3:20:21,34.219368N,-112.948662W,1117.40,0.01,15
17332484,30.08,1061.14,92,21.17,-8.40,4.14,2.80,3:20:22,34.219368N,-112.948662W,1117.40,0.01,15
17333485,30.08,1061.24,103,21.19,-8.40,4.19,2.75,3:20:23,34.219368N,-112.948662W,1117.40,0.01,15
17334486,30.07,1061.33,89,21.19,-8.51,4.09,2.79,3:20:24,34.219368N,-112.948662W,1117.40,0.01,15
17335487,30.07,1061.24,103,21.20,-8.61,4.10,2.82,3:20:25,34.219368N,-112.948662W,1117.40,0.01,15
17336488,30.06,1061.33,81,21.23,-8.53,4.07,2.80,3:20:26,34.219368N,-112.948662W,1117.40,0.01,15
17337489,30.05,1061.14,107,21.21,-8.39,4.21,2.76,3:20:27,34.219368N,-112.948662W,1117.40,0.03,15
17338490,30.05,1061.14,87,21.18,-8.23,4.58,2.85,3:20:28,34.219368N,-112.948662W,1117.40,0.01,15
17339491,30.05,1061.05,84,21.22,-8.29,4.44,2.86,3:20:29,34.219368N,-112.948662W,1117.40,0.01,15
17340492,30.05,1060.96,92,21.25,-8.43,4.28,2.82,3:20:30,34.219368N,-112.948662W,1117.40,0.00,15
17341493,30.05,1061.05,94,21.20,-8.31,4.24,2.80,3:20:31,34.219368N,-112.948662W,1117.40,0.00,15
17342494,30.05,1060.87,99,21.20,-8.33,4.26,2.74,3:20:32,34.219368N,-112.948662W,1117.40,0.01,15
17343495,30.05,1060.87,102,21.22,-8.48,4.15,2.80,3:20:33,34.219368N,-112.948662W,1117.40,0.02,15
17344496,30.05,1060.96,88,21.25,-8.47,4.22,2.76,3:20:34,34.219368N,-112.948662W,1117.40,0.01,15
17345497,30.04,1061.05,81,21.25,-8.43,4.20,2.79,3:20:35,34.219368N,-112.948662W,1117.40,0.00,15
17346498,30.04,1060.96,88,21.25,-8.48,4.23,2.76,3:20:36,34.219368N,-112.948662W,1117.40,0.01,15
17347499,30.05,1061.14,96,21.22,-8.46,4.16,2.81,3:20:37,34.219368N,-112.948662W,1117.30,0.01,15
17348500,30.05,1060.96,94,21.18,-8.56,4.13,2.75,3:20:38,34.219368N,-112.948662W,1117.30,0.01,15
17349501,30.05,1060.96,52,21.25,-8.51,4.17,2.77,3:20:39,34.219368N,-112.948662W,1117.30,0.00,15
17350502,30.06,1060.96,79,21.22,-8.55,4.26,2.85,3:20:40,34.219368N,-112.948662W,1117.30,0.01,15
17351503,30.06,1060.96,68,21.21,-8.35,4.25,2.79,3:20:41,34.219368N,-112.948662W,1117.30,0.01,15
17352504,30.05,1061.24,72,21.24,-8.48,4.15,2.83,3:20:42,34.219368N,-112.948662W,1117.30,0.01,15
17353505,30.04,1061.33,106,21.23,-8.42,4.16,2.80,3:20:43,34.219368N,-112.948662W,1117.30,0.02,15
17354506,30.04,1061.24,93,21.25,-8.48,4.16,2.83,3:20:44,34.219368N,-112.948662W,1117.30,0.01,15
17355507,30.04,1061.05,45,21.29,-8.27,4.20,2.81,3:20:45,34.219368N,-112.948662W,1117.30,0.01,15
17356508,30.03,1061.14,98,21.26,-8.40,4.24,2.80,3:20:46,34.219368N,-112.948662W,1117.30,0.02,15
17357509,30.03,1061.05,94,21.25,-8.34,4.31,2.76,3:20:47,34.219368N,-112.948662W,1117.30,0.02,15
17358510,30.03,1060.87,92,21.26,-8.56,4.29,2.76,3:20:48,34.219368N,-112.948662W,1117.30,0.01,15
17359511,30.02,1060.87,96,21.29,-8.38,4.23,2.86,3:20:49,34.219368N,-112.948662W,1117.30,0.01,15
17360512,30.02,1060.87,96,21.30,-8.40,4.22,2.75,3:20:50,34.219368N,-112.948662W,1117.30,0.02,15
17361513,30.03,1060.78,83,21.31,-8.54,4.13,2.80,3:20:51,34.219368N,-112.948662W,1117.30,0.01,15
17362514,30.02,1061.05,87,21.28,-8.59,4.09,2.72,3:20:52,34.219368N,-112.948662W,1117.30,0.02,15
17363515,30.01,1061.05,79,21.25,-8.62,4.10,2.76,3:20:53,34.219368N,-112.948662W,1117.30,0.02,15
17364516,30.01,1061.14,87,21.27,-8.56,4.07,2.80,3:20:54,34.219368N,-112.948662W,1117.30,0.01,15
17365517,30.01,1061.33,92,21.27,-8.57,4.10,2.79,3:20:55,34.219368N,-112.948662W,1117.30,0.01,15
17366518,30.01,1061.42,94,21.31,-8.52,4.13,2.76,3:20:56,34.219368N,-112.948662W,1117.30,0.01,15
17367519,30.02,1061.42,81,21.28,-8.48,4.06,2.83,3:20:57,34.219368N,-112.948662W,1117.30,0.01,15
17368520,30.01,1061.42,91,21.29,-8.64,4.06,2.79,3:20:58,34.219368N,-112.948662W,1117.30,0.03,15
17369521,30.01,1061.51,93,21.20,-8.54,4.07,2.79,3:20:59,34.219368N,-112.948662W,1117.30,0.02,15
17370522,30.01,1061.51,57,21.30,-8.55,4.07,2.80,3:21:0,34.219368N,-112.948662W,1117.30,0.01,15
17371523,30.01,1061.42,67,21.25,-8.46,4.05,2.79,3:21:1,34.219368N,-112.948662W,1117.30,0.00,15
17372524,30.02,1061.33,108,21.29,-8.53,4.10,2.81,3:21:2,34.219368N,-112.948662W,1117.30,0.01,15
17373525,30.02,1061.14,106,21.29,-8.62,4.03,2.83,3:21:3,34.219368N,-112.948662W,1117.30,0.01,15
17374526,30.02,1061.24,102,21.23,-8.62,4.11,2.82,3:21:4,34.219368N,-112.948662W,1117.30,0.01,15
17375527,30.02,1061.42,87,21.25,-8.66,3.83,2.79,3:21:5,34.219368N,-112.948662W,1117.30,0.01,15
17376528,30.01,1061.61,92,21.31,-8.50,4.19,2.71,3:21:6,34.219368N,-112.948662W,1117.30,0.02,15
17377529,30.01,1061.42,107,21.29,-8.31,4.21,2.84,3:21:7,34.219368N,-112.948662W,1117.30,0.01,15
17378530,29.99,1061.51,87,21.29,-8.45,4.23,2.74,3:21:8,34.219368N,-112.948662W,1117.30,0.02,15
17379531,29.99,1061.33,87,21.30,-8.32,4.12,2.79,3:21:9,34.219368N,-112.948662W,1117.30,0.01,15
17380532,29.99,1061.33,77,21.29,-8.36,4.14,2.80,3:21:10,34.219368N,-112.948662W,1117.30,0.01,15
17381533,29.99,1061.42,86,21.27,-8.40,4.13,2.82,3:21:11,34.219368N,-112.948662W,1117.30,0.01,15
17382534,30.00,1061.33,88,21.29,-8.43,4.16,2.74,3:21:12,34.219368N,-112.948662W,1117.30,0.01,15
17383535,30.00,1061.33,92,21.31,-8.64,4.11,2.84,3:21:13,34.219368N,-112.948662W,1117.30,0.01,15
17384536,30.01,1061.51,91,21.33,-8.57,3.98,2.81,3:21:14,34.219368N,-112.948662W,1117.30,0.01,15
17385537,30.02,1061.42,91,21.32,-8.59,4.02,2.81,3:21:15,34.219368N,-112.948662W,1117.30,0.01,15
17386538,30.02,1061.42,104,21.29,-8.56,4.06,2.75,3:21:16,34.219368N,-112.948662W,1117.30,0.02,15
17387539,30.01,1061.51,68,21.26,-8.55,4.05,2.79,3:21:17,34.219368N,-112.948662W,1117.30,0.02,15
17388540,30.01,1061.51,69,21.33,-8.62,4.02,2.80,3:21:18,34.219368N,-112.948662W,1117.30,0.01,15
17389541,30.00,1061.51,104,21.34,-8.50,4.15,2.81,3:21:19,34.219368N,-112.948662W,1117.30,0.01,15
17390542,30.00,1061.33,103,21.31,-8.38,4.21,2.80,3:21:20,34.219368N,-112.948662W,1117.30,0.01,15
17391543,30.01,1061.33,42,21.30,-8.50,4.13,2.81,3:21:21,34.219368N,-112.948662W,1117.30,0.01,15
17392544,30.02,1061.33,98,21.30,-8.88,4.05,2.82,3:21:22,34.219368N,-112.948662W,1117.30,0.01,16
17393545,30.02,1061.51,96,21.30,-8.54,4.18,2.87,3:21:23,34.219368N,-112.948662W,1117.30,0.01,16
17394546,30.01,1061.70,99,21.35,-8.44,4.21,2.75,3:21:24,34.219368N,-112.948662W,1117.30,0.01,16
17395547,30.01,1061.61,99,21.32,-8.41,4.15,2.84,3:21:25,34.219368N,-112.948662W,1117.30,0.02,16
17396548,29.99,1061.51,94,21.32,-8.50,4.18,2.83,3:21:26,34.219368N,-112.948662W,1117.30,0.01,16
17397549,29.99,1061.42,84,21.31,-8.64,4.15,2.78,3:21:27,34.219368N,-112.948662W,1117.30,0.01,16
17398550,29.98,1061.42,94,21.32,-8.21,4.20,2.80,3:21:28,34.219368N,-112.948662W,1117.30,0.01,16
17399551,30.00,1061.24,86,21.31,-8.61,4.11,2.87,3:21:29,34.219368N,-112.948662W,1117.30,0.01,16
17400552,30.00,1061.33,97,21.34,-8.52,4.11,2.80,3:21:30,34.219368N,-112.948662W,1117.30,0.01,16
17401553,30.00,1061.33,98,21.35,-8.61,4.13,2.78,3:21:31,34.219368N,-112.948662W,1117.30,0.02,16
17402554,30.01,1061.24,92,21.33,-8.54,4.22,2.82,3:21:32,34.219368N,-112.948662W,1117.30,0.01,16
17403555,30.01,1061.24,87,21.37,-8.60,4.17,2.80,3:21:33,34.219368N,-112.948662W,1117.30,0.01,16
17404556,30.01,1061.33,83,21.34,-8.71,4.24,2.81,3:21:34,34.219368N,-112.948662W,1117.30,0.01,16
17405557,30.02,1061.33,84,21.35,-8.38,4.03,2.83,3:21:35,34.219368N,-112.948662W,1117.30,0.02,16
17406558,30.01,1061.24,59,21.34,-8.47,4.21,2.79,3:21:36,34.219368N,-112.948662W,1117.30,0.01,16
17407559,29.99,1061.14,64,21.36,-8.55,4.11,2.79,3:21:37,34.219368N,-112.948662W,1117.30,0.01,16
17408560,29.98,1060.96,87,21.30,-8.33,4.30,2.75,3:21:38,34.219368N,-112.948662W,1117.30,0.01,16
17409561,29.97,1061.05,83,21.33,-8.31,4.32,2.78,3:21:39,34.219368N,-112.948662W,1117.30,0.01,16
17410562,29.96,1060.96,102,21.34,-8.49,4.11,2.79,3:21:40,34.219368N,-112.948662W,1117.30,0.02,16
17411563,29.96,1060.87,101,21.35,-8.57,4.07,2.79,3:21:41,34.219368N,-112.948662W,1117.30,0.02,16
17412564,29.96,1060.96,89,21.35,-8.53,4.14,2.77,3:21:42,34.219368N,-112.948662W,1117.30,0.02,16
17413565,29.97,1060.87,79,21.37,-8.38,4.19,2.74,3:21:43,34.219368N,-112.948662W,1117.30,0.01,16
17414566,29.97,1061.05,99,21.34,-8.45,4.25,2.79,3:21:44,34.219368N,-112.948662W,1117.30,0.02,16
17415567,29.97,1061.14,98,21.35,-8.45,4.15,2.80,3:21:45,34.219368N,-112.948662W,1117.30,0.02,16
17416568,29.97,1061.14,94,21.37,-8.49,4.15,2.79,3:21:46,34.219368N,-112.948662W,1117.30,0.01,16
17417569,29.96,1061.24,94,21.34,-8.39,4.18,2.82,3:21:47,34.219368N,-112.948662W,1117.30,0.02,16
