time_since_start,bme_temp,bme_alt,uv,ism_temp,acc_x,acc_y,acc_z,gps_time,latitude,longitude,gps_alt,speed,sats
15917070,29.61,1059.48,33,18.46,-8.46,4.19,2.77,2:56:46,34.219379N,-112.948662W,1118.10,0.02,16
15918071,29.61,1059.39,34,18.43,-8.52,4.18,2.81,2:56:47,34.219379N,-112.948662W,1118.10,0.01,16
15919072,29.61,1059.48,24,18.48,-8.55,4.13,2.72,2:56:48,34.219379N,-112.948662W,1118.10,0.00,16
15920073,29.60,1059.48,24,18.49,-8.43,4.18,2.77,2:56:49,34.219379N,-112.948662W,1118.10,0.02,16
15921074,29.59,1059.39,24,18.43,-8.46,4.08,2.68,2:56:50,34.219379N,-112.948662W,1118.10,0.01,15
15922075,29.58,1059.39,35,18.47,-8.63,4.02,2.79,2:56:51,34.219379N,-112.948662W,1118.10,0.02,16
15923076,29.57,1059.39,34,18.48,-8.49,4.20,2.78,2:56:52,34.219379N,-112.948662W,1118.10,0.02,16
15924077,29.56,1059.39,25,18.42,-8.71,4.05,2.85,2:56:53,34.219379N,-112.948662W,1118.10,0.02,15
15925078,29.56,1059.30,33,18.50,-8.44,4.29,2.68,2:56:54,34.219379N,-112.948662W,1118.10,0.02,16
15926079,29.55,1059.30,39,18.46,-8.39,4.32,2.85,2:56:55,34.219379N,-112.948662W,1118.10,0.01,16
15927080,29.55,1059.21,30,18.47,-8.39,4.22,2.72,2:56:56,34.219379N,-112.948662W,1118.10,0.02,16
15928081,29.54,1059.30,31,18.42,-8.50,4.37,2.78,2:56:57,34.219379N,-112.948662W,1118.10,0.01,16
15929082,29.51,1059.30,35,18.45,-8.82,4.36,2.77,2:56:58,34.219379N,-112.948662W,1118.10,0.02,16
15930083,29.49,1059.39,23,18.45,-8.59,4.18,2.66,2:56:59,34.219379N,-112.948662W,1118.10,0.02,16
15931084,29.45,1059.39,31,18.49,-8.62,3.99,2.79,2:57:0,34.219379N,-112.948662W,1118.10,0.01,16
15932085,29.43,1059.30,40,18.50,-8.37,4.42,2.68,2:57:1,34.219379N,-112.948662W,1118.10,0.03,16
15933086,29.40,1059.48,26,18.46,-8.30,4.16,2.69,2:57:2,34.219379N,-112.948662W,1118.10,0.02,15
15934087,29.35,1059.39,25,18.46,-8.21,4.34,2.97,2:57:3,34.219379N,-112.948662W,1118.10,0.03,16
15935088,29.29,1059.39,34,18.52,-8.50,4.27,2.62,2:57:4,34.219379N,-112.948662W,1118.10,0.02,16
15936089,29.26,1059.39,42,18.52,-8.55,4.31,2.83,2:57:5,34.219379N,-112.948662W,1118.10,0.01,16
15937090,29.23,1059.39,47,18.49,-8.47,4.20,2.76,2:57:6,34.219379N,-112.948662W,1118.10,0.01,16
15938091,29.20,1059.39,42,18.46,-8.44,4.20,2.76,2:57:7,34.219379N,-112.948662W,1118.10,0.03,16
15939092,29.18,1059.39,25,18.51,-8.55,4.15,2.73,2:57:8,34.219379N,-112.948662W,1118.10,0.00,16
15940093,29.16,1059.48,48,18.53,-8.42,4.18,2.76,2:57:9,34.219379N,-112.948662W,1118.10,0.02,16
15941094,29.15,1059.48,39,18.55,-8.48,4.21,2.77,2:57:10,34.219379N,-112.948662W,1118.10,0.01,16
15942095,29.13,1059.48,35,18.52,-8.38,4.32,2.75,2:57:11,34.219379N,-112.948662W,1118.10,0.02,16
15943096,29.11,1059.58,40,18.51,-8.54,4.22,2.79,2:57:12,34.219379N,-112.948662W,1118.10,0.02,16
15944097,29.08,1059.58,36,18.52,-8.45,4.23,2.72,2:57:13,34.219379N,-112.948662W,1118.10,0.01,16
15945098,29.06,1059.58,42,18.50,-8.41,4.12,2.73,2:57:14,34.219379N,-112.948662W,1118.10,0.02,16
15946099,29.03,1059.58,34,18.53,-8.46,4.25,2.74,2:57:15,34.219379N,-112.948662W,1118.10,0.02,16
15947100,29.01,1059.58,42,18.50,-8.48,4.18,2.78,2:57:16,34.219379N,-112.948662W,1118.10,0.01,16
15948101,29.00,1059.48,35,18.53,-8.47,4.16,2.75,2:57:17,34.219379N,-112.948662W,1118.10,0.01,16
15949102,28.98,1059.58,29,18.52,-8.41,4.19,2.78,2:57:18,34.219379N,-112.948662W,1118.10,0.02,16
15950103,28.97,1059.67,28,18.54,-8.45,4.23,2.71,2:57:19,34.219379N,-112.948662W,1118.10,0.02,16
15951104,28.96,1059.58,42,18.54,-8.42,4.34,2.81,2:57:20,34.219379N,-112.948662W,1118.10,0.02,16
15952105,28.94,1059.58,33,18.55,-8.43,4.16,2.78,2:57:21,34.219379N,-112.948662W,1118.10,0.01,16
15953106,28.93,1059.58,29,18.53,-8.48,4.13,2.77,2:57:22,34.219379N,-112.948662W,1118.10,0.01,16
15954107,28.92,1059.58,36,18.55,-8.44,4.11,2.79,2:57:23,34.219379N,-112.948662W,1118.10,0.02,16
15955108,28.91,1059.67,45,18.55,-8.38,4.19,2.77,2:57:24,34.219379N,-112.948662W,1118.10,0.02,16
15956109,28.91,1059.67,42,18.55,-8.46,4.36,2.78,2:57:25,34.219379N,-112.948662W,1118.10,0.02,16
15957110,28.89,1059.67,39,18.57,-8.46,4.30,2.76,2:57:26,34.219379N,-112.948662W,1118.10,0.02,16
15958111,28.90,1059.58,44,18.55,-8.48,4.18,2.77,2:57:27,34.219379N,-112.948662W,1118.10,0.00,16
15959112,28.90,1059.58,40,18.57,-8.45,4.17,2.76,2:57:28,34.219379N,-112.948662W,1118.10,0.02,16
15960113,28.90,1059.58,39,18.54,-8.49,4.12,2.76,2:57:29,34.219379N,-112.948662W,1118.10,0.01,16
15961114,28.88,1059.58,38,18.55,-8.47,4.11,2.76,2:57:30,34.219379N,-112.948662W,1118.10,0.00,16
15962115,28.88,1059.58,50,18.54,-8.46,4.18,2.79,2:57:31,34.219379N,-112.948662W,1118.10,0.02,16
15963116,28.89,1059.58,39,18.54,-8.43,4.16,2.76,2:57:32,34.219379N,-112.948662W,1118.10,0.01,16
15964117,28.89,1059.67,44,18.57,-8.35,4.15,2.78,2:57:33,34.219379N,-112.948662W,1118.10,0.01,16
15965118,28.89,1059.67,47,18.55,-8.32,4.25,2.75,2:57:34,34.219379N,-112.948662W,1118.00,0.00,16
15966119,28.89,1059.67,50,18.55,-8.32,4.26,2.75,2:57:35,34.219379N,-112.948662W,1118.00,0.01,16
15967120,28.89,1059.67,50,18.57,-8.40,4.23,2.80,2:57:36,34.219379N,-112.948662W,1118.00,0.01,16
15968121,28.89,1059.58,44,18.55,-8.38,4.16,2.76,2:57:37,34.219379N,-112.948662W,1118.00,0.01,16
15969122,28.89,1059.48,44,18.56,-8.45,4.13,2.76,2:57:38,34.219379N,-112.948662W,1118.00,0.01,16
15970123,28.89,1059.48,49,18.58,-8.48,4.19,2.79,2:57:39,34.219379N,-112.948662W,1118.00,0.01,16
15971124,28.90,1059.58,44,18.57,-8.45,4.14,2.75,2:57:40,34.219379N,-112.948662W,1118.00,0.02,16
15972125,28.90,1059.58,47,18.55,-8.50,4.14,2.79,2:57:41,34.219379N,-112.948662W,1118.00,0.01,16
15973126,28.91,1059.58,42,18.56,-8.45,4.14,2.77,2:57:42,34.219379N,-112.948662W,1118.00,0.01,16
15974127,28.91,1059.58,44,18.58,-8.49,4.13,2.77,2:57:43,34.219379N,-112.948662W,1118.00,0.01,16
15975128,28.91,1059.48,47,18.61,-8.48,4.18,2.76,2:57:44,34.219379N,-112.948662W,1118.00,0.02,16
15976129,28.91,1059.48,45,18.56,-8.47,4.18,2.78,2:57:45,34.219379N,-112.948662W,1118.00,0.01,16
15977130,28.92,1059.58,47,18.61,-8.42,4.30,2.77,2:57:46,34.219379N,-112.948662W,1118.00,0.01,16
15978131,28.93,1059.67,45,18.56,-8.49,4.24,2.79,2:57:47,34.219379N,-112.948662W,1118.00,0.01,16
15979132,28.93,1059.76,47,18.57,-8.50,4.13,2.77,2:57:48,34.219379N,-112.948662W,1118.00,0.01,16
15980133,28.92,1059.67,44,18.55,-8.52,4.13,2.78,2:57:49,34.219379N,-112.948662W,1118.00,0.01,16
15981134,28.92,1059.67,42,18.57,-8.48,4.12,2.77,2:57:50,34.219379N,-112.948662W,1118.00,0.01,16
15982135,28.92,1059.58,38,18.57,-8.48,4.13,2.79,2:57:51,34.219379N,-112.948662W,1118.00,0.00,16
15983136,28.93,1059.48,44,18.57,-8.47,4.13,2.77,2:57:52,34.219379N,-112.948662W,1118.00,0.01,16
15984137,28.94,1059.58,45,18.57,-8.46,4.16,2.77,2:57:53,34.219379N,-112.948662W,1118.00,0.01,16
15985138,28.95,1059.58,48,18.63,-8.51,4.16,2.79,2:57:54,34.219379N,-112.948662W,1118.00,0.01,16
15986139,28.95,1059.58,45,18.61,-8.41,4.25,2.76,2:57:55,34.219379N,-112.948662W,1118.00,0.01,16
15987140,28.95,1059.48,48,18.59,-8.48,4.16,2.80,2:57:56,34.219379N,-112.948662W,1118.00,0.01,16
15988141,28.95,1059.48,42,18.57,-8.49,4.18,2.74,2:57:57,34.219379N,-112.948662W,1118.00,0.01,16
15989142,28.96,1059.58,49,18.59,-8.50,4.15,2.79,2:57:58,34.219379N,-112.948662W,1118.00,0.01,16
15990143,28.97,1059.58,44,18.59,-8.49,4.15,2.77,2:57:59,34.219379N,-112.948662W,1118.00,0.01,16
15991144,28.98,1059.58,43,18.60,-8.44,4.16,2.78,2:58:0,34.219379N,-112.948662W,1118.00,0.01,16
15992145,29.00,1059.58,44,18.59,-8.42,4.20,2.78,2:58:1,34.219379N,-112.948662W,1118.00,0.01,16
15993146,29.02,1059.48,45,18.59,-8.44,4.20,2.78,2:58:2,34.219379N,-112.948662W,1118.00,0.02,16
15994147,29.03,1059.39,43,18.59,-8.53,4.12,2.76,2:58:3,34.219379N,-112.948662W,1118.00,0.00,16
15995148,29.04,1059.39,43,18.59,-8.52,4.16,2.77,2:58:4,34.219379N,-112.948662W,1118.00,0.01,16
15996149,29.04,1059.39,42,18.60,-8.52,4.15,2.77,2:58:5,34.219379N,-112.948662W,1118.00,0.00,16
15997150,29.05,1059.48,40,18.63,-8.49,4.06,2.76,2:58:6,34.219379N,-112.948662W,1118.00,0.01,16
15998151,29.06,1059.48,47,18.60,-8.50,4.13,2.78,2:58:7,34.219379N,-112.948662W,1118.00,0.01,16
15999152,29.07,1059.48,55,18.65,-8.50,4.18,2.78,2:58:8,34.219379N,-112.948662W,1118.00,0.01,16
16000153,29.08,1059.39,48,18.62,-8.43,4.18,2.75,2:58:9,34.219379N,-112.948662W,1118.00,0.01,16
16001154,29.09,1059.48,43,18.64,-8.39,4.21,2.79,2:58:10,34.219379N,-112.948662W,1118.00,0.01,16
16002155,29.10,1059.58,38,18.62,-8.52,4.14,2.81,2:58:11,34.219379N,-112.948662W,1118.00,0.02,16
16003156,29.10,1059.58,53,18.58,-8.48,4.12,2.78,2:58:12,34.219379N,-112.948662W,1118.00,0.01,16
16004157,29.09,1059.67,43,18.63,-8.56,4.11,2.79,2:58:13,34.219379N,-112.948662W,1118.00,0.01,16
16005158,29.09,1059.67,42,18.64,-8.43,4.12,2.76,2:58:14,34.219379N,-112.948662W,1118.00,0.01,16
16006159,29.09,1059.58,52,18.63,-8.59,4.13,2.78,2:58:15,34.219379N,-112.948662W,1118.00,0.01,16
16007160,29.10,1059.48,49,18.65,-8.47,4.24,2.77,2:58:16,34.219379N,-112.948662W,1118.00,0.01,16
16008161,29.11,1059.48,45,18.64,-8.49,4.16,2.79,2:58:17,34.219379N,-112.948662W,1118.00,0.02,16
16009162,29.11,1059.48,47,18.65,-8.51,4.24,2.80,2:58:18,34.219379N,-112.948662W,1118.00,0.01,16
16010163,29.12,1059.39,38,18.68,-8.50,4.23,2.80,2:58:19,34.219379N,-112.948662W,1118.00,0.01,16
16011164,29.12,1059.39,45,18.70,-8.36,4.23,2.76,2:58:20,34.219379N,-112.948662W,1118.00,0.01,16
16012165,29.12,1059.48,48,18.70,-8.40,4.15,2.81,2:58:21,34.219379N,-112.948662W,1118.00,0.01,16
16013166,29.13,1059.48,33,18.64,-8.46,4.16,2.79,2:58:22,34.219379N,-112.948662W,1118.00,0.01,15
16014167,29.14,1059.48,30,18.68,-8.51,4.13,2.79,2:58:23,34.219379N,-112.948662W,1118.00,0.01,16
16015168,29.14,1059.48,31,18.70,-8.60,4.00,2.83,2:58:24,34.219379N,-112.948662W,1118.00,0.01,15
16016169,29.14,1059.48,50,18.71,-8.53,3.98,2.79,2:58:25,34.219379N,-112.948662W,1118.00,0.02,15
16017170,29.12,1059.48,45,18.65,-8.53,4.14,2.79,2:58:26,34.219379N,-112.948662W,1118.00,0.01,15
16018171,29.12,1059.48,48,18.69,-8.52,4.15,2.79,2:58:27,34.219379N,-112.948662W,1118.00,0.00,15
16019172,29.12,1059.39,43,18.68,-8.48,4.13,2.78,2:58:28,34.219379N,-112.948662W,1118.00,0.02,15
16020173,29.13,1059.39,48,18.70,-8.52,4.14,2.78,2:58:29,34.219379N,-112.948662W,1118.00,0.01,15
16021174,29.15,1059.39,48,18.70,-8.50,4.09,2.79,2:58:30,34.219379N,-112.948662W,1118.00,0.01,15
16022175,29.16,1059.48,50,18.72,-8.51,4.13,2.78,2:58:31,34.219379N,-112.948662W,1118.00,0.00,15
16023176,29.18,1059.39,43,18.74,-8.49,4.16,2.78,2:58:32,34.219379N,-112.948662W,1118.00,0.02,15
16024177,29.20,1059.39,49,18.72,-8.53,4.13,2.81,2:58:33,34.219379N,-112.948662W,1118.00,0.01,15
16025178,29.20,1059.48,31,18.67,-8.57,4.12,2.77,2:58:34,34.219379N,-112.948662W,1118.00,0.01,15
16026179,29.21,1059.58,39,18.65,-8.44,4.22,2.79,2:58:35,34.219379N,-112.948662W,1118.00,0.00,15
16027180,29.21,1059.58,38,18.75,-8.38,4.20,2.77,2:58:36,34.219379N,-112.948662W,1118.00,0.01,15
16028181,29.21,1059.58,52,18.69,-8.31,4.14,2.76,2:58:37,34.219379N,-112.948662W,1118.00,0.02,15
16029182,29.21,1059.58,54,18.71,-8.60,4.10,2.78,2:58:38,34.219379N,-112.948662W,1118.00,0.01,15
16030183,29.21,1059.58,49,18.72,-8.57,4.05,2.79,2:58:39,34.219379N,-112.948662W,1118.00,0.00,15
16031184,29.21,1059.48,43,18.71,-8.55,4.09,2.76,2:58:40,34.219379N,-112.948662W,1118.00,0.01,16
16032185,29.22,1059.39,53,18.68,-8.54,4.11,2.80,2:58:41,34.219379N,-112.948662W,1118.00,0.01,16
16033186,29.23,1059.39,33,18.73,-8.58,4.08,2.79,2:58:42,34.219379N,-112.948662W,1118.00,0.01,16
16034187,29.22,1059.48,40,18.72,-8.52,4.09,2.78,2:58:44,34.219379N,-112.948662W,1118.00,0.01,16
16035188,29.23,1059.39,45,18.71,-8.60,4.10,2.79,2:58:45,34.219379N,-112.948662W,1118.00,0.01,15
16036189,29.23,1059.48,48,18.74,-8.45,4.13,2.78,2:58:46,34.219379N,-112.948662W,1118.00,0.01,15
16037190,29.22,1059.48,47,18.74,-8.53,4.18,2.77,2:58:47,34.219379N,-112.948662W,1118.00,0.02,14
16038191,29.20,1059.39,39,18.70,-8.43,4.15,2.79,2:58:47,34.219379N,-112.948662W,1118.00,0.01,14
16039192,29.20,1059.39,45,18.76,-8.59,4.07,2.82,2:58:49,34.219379N,-112.948662W,1118.00,0.00,15
16040193,29.21,1059.48,39,18.71,-8.43,4.10,2.71,2:58:50,34.219379N,-112.948662W,1118.00,0.01,15
16041194,29.21,1059.58,35,18.73,-8.37,4.25,2.81,2:58:51,34.219379N,-112.948662W,1118.00,0.01,15
16042195,29.20,1059.67,48,18.77,-8.42,4.23,2.80,2:58:52,34.219379N,-112.948662W,1118.00,0.01,15
16043196,29.19,1059.58,53,18.77,-8.34,4.23,2.79,2:58:53,34.219379N,-112.948662W,1118.10,0.02,15
16044197,29.18,1059.58,53,18.73,-8.42,4.19,2.79,2:58:54,34.219379N,-112.948662W,1118.00,0.00,15
16045198,29.19,1059.67,44,18.77,-8.44,4.13,2.78,2:58:55,34.219379N,-112.948662W,1118.00,0.01,15
16046199,29.20,1059.58,47,18.76,-8.50,4.10,2.78,2:58:56,34.219379N,-112.948662W,1118.00,0.01,15
16047200,29.22,1059.48,47,18.73,-8.52,4.11,2.75,2:58:57,34.219379N,-112.948662W,1118.00,0.00,15
16048201,29.22,1059.58,50,18.79,-8.49,4.15,2.78,2:58:58,34.219379N,-112.948662W,1118.00,0.01,15
16049202,29.23,1059.48,43,18.75,-8.53,4.13,2.76,2:58:59,34.219379N,-112.948662W,1118.00,0.01,15
16050203,29.23,1059.48,48,18.80,-8.53,4.14,2.77,2:59:0,34.219379N,-112.948662W,1118.00,0.02,14
16051204,29.24,1059.39,38,18.71,-8.61,4.11,2.77,2:59:1,34.219379N,-112.948662W,1118.00,0.01,15
16052205,29.24,1059.39,36,18.76,-8.50,4.04,2.78,2:59:1,34.219379N,-112.948662W,1118.00,0.01,15
16053206,29.24,1059.48,43,18.77,-8.55,4.21,2.82,2:59:3,34.219379N,-112.948662W,1118.00,0.01,15
16054207,29.24,1059.48,40,18.77,-8.47,3.99,2.79,2:59:4,34.219379N,-112.948662W,1118.00,0.01,15
16055208,29.23,1059.58,38,18.72,-8.53,4.05,2.80,2:59:5,34.219379N,-112.948662W,1118.00,0.00,15
16056209,29.22,1059.67,35,18.76,-8.40,4.23,2.74,2:59:6,34.219379N,-112.948662W,1118.00,0.02,15
16057210,29.21,1059.67,48,18.77,-8.49,4.07,2.79,2:59:7,34.219379N,-112.948662W,1118.00,0.01,15
16058211,29.20,1059.58,52,18.77,-8.44,4.20,2.77,2:59:8,34.219379N,-112.948662W,1118.00,0.01,15
16059212,29.21,1059.67,38,18.79,-8.37,4.19,2.84,2:59:9,34.219379N,-112.948662W,1118.00,0.01,15
16060213,29.21,1059.67,40,18.78,-8.25,4.09,2.73,2:59:10,34.219379N,-112.948662W,1118.00,0.01,15
16061214,29.21,1059.67,38,18.80,-8.47,4.18,2.72,2:59:11,34.219379N,-112.948662W,1118.00,0.01,15
16062215,29.21,1059.67,42,18.77,-8.34,4.26,2.80,2:59:12,34.219379N,-112.948662W,1118.00,0.01,15
16063216,29.21,1059.67,43,18.82,-8.44,4.29,2.78,2:59:13,34.219379N,-112.948662W,1118.00,0.02,15
16064217,29.20,1059.76,47,18.78,-8.53,4.14,2.79,2:59:14,34.219379N,-112.948662W,1118.00,0.01,15
16065218,29.20,1059.67,42,18.79,-8.62,4.08,2.78,2:59:15,34.219379N,-112.948662W,1118.00,0.01,14
16066219,29.19,1059.58,50,18.80,-8.41,4.08,2.79,2:59:16,34.219379N,-112.948662W,1118.00,0.01,14
16067220,29.19,1059.67,48,18.79,-8.40,4.14,2.78,2:59:17,34.219379N,-112.948662W,1118.00,0.01,14
16068221,29.18,1059.67,53,18.77,-8.52,4.12,2.75,2:59:18,34.219379N,-112.948662W,1118.00,0.01,15
16069222,29.18,1059.67,39,18.79,-8.60,4.18,2.77,2:59:19,34.219379N,-112.948662W,1118.00,0.01,14
16070223,29.17,1059.67,33,18.79,-8.50,4.12,2.87,2:59:20,34.219379N,-112.948662W,1118.00,0.02,16
16071224,29.17,1059.67,43,18.80,-8.39,4.22,2.74,2:59:21,34.219379N,-112.948662W,1118.00,0.01,16
16072225,29.16,1059.58,60,18.81,-8.42,4.11,2.83,2:59:22,34.219379N,-112.948662W,1118.00,0.01,16
16073226,29.15,1059.58,59,18.82,-8.34,4.28,2.74,2:59:23,34.219379N,-112.948662W,1118.00,0.01,16
16074227,29.15,1059.58,39,18.82,-8.44,4.27,2.80,2:59:24,34.219379N,-112.948662W,1118.00,0.01,15
16075228,29.15,1059.58,53,18.82,-8.35,4.26,2.77,2:59:25,34.219379N,-112.948662W,1118.00,0.01,16
16076229,29.16,1059.58,54,18.81,-8.45,4.28,2.80,2:59:26,34.219379N,-112.948662W,1118.00,0.00,16
16077230,29.15,1059.67,52,18.83,-8.48,4.15,2.79,2:59:27,34.219379N,-112.948662W,1118.00,0.01,16
16078231,29.16,1059.67,50,18.82,-8.50,4.16,2.75,2:59:28,34.219379N,-112.948662W,1118.00,0.01,16
16079232,29.17,1059.67,48,18.81,-8.49,4.16,2.79,2:59:29,34.219379N,-112.948662W,1118.00,0.01,16
16080233,29.17,1059.67,50,18.81,-8.47,4.15,2.79,2:59:30,34.219379N,-112.948662W,1118.00,0.00,16
16081234,29.17,1059.58,49,18.85,-8.48,4.20,2.79,2:59:31,34.219379N,-112.948662W,1118.00,0.01,16
16082235,29.18,1059.58,57,18.83,-8.42,4.19,2.81,2:59:32,34.219379N,-112.948662W,1118.00,0.01,16
16083236,29.19,1059.58,48,18.83,-8.45,4.21,2.78,2:59:33,34.219379N,-112.948662W,1118.00,0.01,16
16084237,29.20,1059.67,48,18.83,-8.38,4.18,2.81,2:59:34,34.219379N,-112.948662W,1118.00,0.00,16
16085238,29.20,1059.76,52,18.82,-8.46,4.18,2.81,2:59:35,34.219379N,-112.948662W,1118.00,0.01,16
16086239,29.19,1059.76,54,18.82,-8.39,4.23,2.77,2:59:36,34.219379N,-112.948662W,1118.00,0.00,16
16087240,29.18,1059.76,58,18.85,-8.37,4.18,2.79,2:59:37,34.219379N,-112.948662W,1118.00,0.01,15
16088241,29.18,1059.76,54,18.85,-8.48,4.14,2.78,2:59:38,34.219379N,-112.948662W,1118.00,0.01,16
16089242,29.17,1059.85,50,18.90,-8.44,4.16,2.77,2:59:39,34.219379N,-112.948669W,1118.00,0.00,16
16090243,29.17,1059.76,54,18.87,-8.48,4.19,2.77,2:59:40,34.219379N,-112.948669W,1118.00,0.01,16
16091244,29.17,1059.76,49,18.85,-8.45,4.22,2.79,2:59:41,34.219379N,-112.948669W,1118.00,0.01,16
16092245,29.17,1059.85,57,18.87,-8.43,4.18,2.80,2:59:42,34.219379N,-112.948669W,1118.00,0.02,16
16093246,29.16,1059.76,45,18.84,-8.40,4.16,2.79,2:59:43,34.219379N,-112.948669W,1118.00,0.01,16
16094247,29.16,1059.67,44,18.89,-8.40,4.21,2.80,2:59:44,34.219379N,-112.948669W,1118.00,0.01,16
16095248,29.16,1059.67,44,18.82,-8.45,4.19,2.78,2:59:45,34.219379N,-112.948669W,1118.00,0.00,15
16096249,29.16,1059.58,45,18.86,-8.45,4.17,2.79,2:59:46,34.219379N,-112.948669W,1118.00,0.01,15
16097250,29.17,1059.48,42,18.83,-8.49,4.19,2.77,2:59:47,34.219379N,-112.948669W,1118.00,0.00,15
16098251,29.18,1059.48,57,18.82,-8.44,4.23,2.79,2:59:48,34.219379N,-112.948669W,1118.00,0.00,15
16099252,29.18,1059.48,45,18.88,-8.51,4.25,2.76,2:59:49,34.219379N,-112.948669W,1118.00,0.01,16
16100253,29.18,1059.39,40,18.86,-8.45,4.36,2.80,2:59:50,34.219379N,-112.948669W,1118.00,0.01,16
16101254,29.18,1059.48,44,18.85,-8.33,4.34,2.84,2:59:51,34.219379N,-112.948669W,1118.00,0.01,16
16102255,29.16,1059.58,44,18.83,-8.38,4.04,2.71,2:59:52,34.219379N,-112.948669W,1118.00,0.01,16
16103256,29.14,1059.48,47,18.86,-8.53,4.17,2.77,2:59:53,34.219379N,-112.948669W,1118.00,0.02,16
16104257,29.12,1059.39,53,18.86,-8.44,4.34,2.82,2:59:54,34.219379N,-112.948669W,1118.00,0.01,16
16105258,29.11,1059.39,45,18.86,-8.46,4.13,2.76,2:59:55,34.219379N,-112.948669W,1118.00,0.01,16
16106259,29.10,1059.30,42,18.86,-8.37,4.29,2.77,2:59:56,34.219379N,-112.948669W,1118.00,0.01,16
16107260,29.09,1059.21,47,18.88,-8.42,4.25,2.77,2:59:57,34.219379N,-112.948669W,1118.00,0.00,16
16108261,29.09,1059.30,47,18.90,-8.48,4.12,2.79,2:59:58,34.219379N,-112.948669W,1118.00,0.01,16
16109262,29.09,1059.30,59,18.90,-8.46,4.17,2.75,2:59:59,34.219379N,-112.948669W,1118.00,0.00,16
16110263,29.10,1059.30,44,18.90,-8.59,4.27,2.82,3:0:0,34.219379N,-112.948669W,1118.00,0.01,16
16111264,29.10,1059.30,44,18.86,-8.35,4.26,2.78,3:0:1,34.219379N,-112.948669W,1118.00,0.00,16
16112265,29.10,1059.30,39,18.91,-8.47,4.19,2.78,3:0:2,34.219379N,-112.948669W,1118.00,0.02,16
16113266,29.09,1059.30,52,18.89,-8.40,4.17,2.75,3:0:3,34.219379N,-112.948669W,1118.00,0.01,16
16114267,29.09,1059.30,54,18.94,-8.45,4.24,2.77,3:0:4,34.219379N,-112.948669W,1118.00,0.01,16
16115268,29.09,1059.39,49,18.90,-8.53,4.20,2.84,3:0:5,34.219379N,-112.948669W,1118.00,0.01,16
16116269,29.07,1059.39,54,18.92,-8.43,4.19,2.75,3:0:6,34.219379N,-112.948669W,1118.00,0.01,16
16117270,29.06,1059.48,48,18.91,-8.44,4.15,2.78,3:0:7,34.219379N,-112.948669W,1118.00,0.01,16
16118271,29.05,1059.48,54,18.91,-8.50,4.13,2.79,3:0:8,34.219379N,-112.948669W,1118.00,0.01,16
16119272,29.02,1059.48,43,18.91,-8.44,4.21,2.78,3:0:9,34.219379N,-112.948669W,1118.00,0.01,16
16120273,29.00,1059.48,42,18.92,-8.50,4.21,2.79,3:0:10,34.219379N,-112.948669W,1118.00,0.01,16
16121274,28.98,1059.39,40,18.95,-8.48,4.15,2.78,3:0:11,34.219379N,-112.948669W,1118.00,0.00,16
16122275,28.96,1059.30,44,18.91,-8.45,4.18,2.79,3:0:12,34.219379N,-112.948669W,1118.00,0.01,16
16123276,28.95,1059.30,36,18.86,-8.47,4.17,2.77,3:0:13,34.219379N,-112.948669W,1118.00,0.01,16
16124277,28.95,1059.30,43,18.93,-8.48,4.16,2.77,3:0:14,34.219379N,-112.948669W,1118.00,0.00,16
16125278,28.93,1059.30,48,18.93,-8.40,4.20,2.75,3:0:15,34.219379N,-112.948669W,1118.00,0.01,16
16126279,28.92,1059.39,42,18.95,-8.43,4.13,2.78,3:0:16,34.219379N,-112.948669W,1118.00,0.01,16
16127280,28.91,1059.39,44,18.96,-8.48,4.18,2.79,3:0:17,34.219379N,-112.948669W,1118.00,0.01,16
16128281,28.91,1059.39,47,18.96,-8.47,4.22,2.79,3:0:18,34.219379N,-112.948669W,1118.00,0.02,16
16129282,28.91,1059.39,45,18.92,-8.50,4.22,2.81,3:0:19,34.219379N,-112.948669W,1118.00,0.00,16
16130283,28.91,1059.39,49,18.94,-8.43,4.16,2.79,3:0:20,34.219379N,-112.948669W,1118.00,0.01,16
16131285,28.91,1059.30,40,18.96,-8.42,4.15,2.79,3:0:21,34.219379N,-112.948669W,1118.00,0.02,16
16132285,28.92,1059.30,47,18.95,-8.37,4.09,2.75,3:0:22,34.219379N,-112.948669W,1118.00,0.01,16
16133286,28.92,1059.48,45,18.96,-8.48,4.33,2.78,3:0:23,34.219379N,-112.948669W,1118.00,0.00,15
16134287,28.90,1059.67,48,18.97,-8.40,4.18,2.77,3:0:24,34.219379N,-112.948669W,1118.00,0.01,15
16135288,28.88,1059.67,62,18.98,-8.48,4.16,2.79,3:0:25,34.219379N,-112.948669W,1118.00,0.02,16
16136289,28.87,1059.58,43,18.96,-8.56,4.07,2.76,3:0:26,34.219379N,-112.948669W,1118.00,0.00,16
16137290,28.86,1059.58,44,18.97,-8.50,3.98,2.86,3:0:27,34.219379N,-112.948669W,1118.00,0.01,16
16138291,28.86,1059.58,39,18.99,-8.55,4.13,2.77,3:0:28,34.219379N,-112.948669W,1118.00,0.01,16
16139292,28.85,1059.48,44,18.94,-8.50,4.24,2.77,3:0:29,34.219379N,-112.948669W,1118.00,0.01,16
16140293,28.84,1059.58,55,19.00,-8.45,4.27,2.80,3:0:30,34.219379N,-112.948669W,1118.00,0.01,16
16141294,28.83,1059.58,49,19.01,-8.45,4.06,2.77,3:0:31,34.219379N,-112.948669W,1118.00,0.01,16
16142295,28.83,1059.58,39,19.05,-8.41,4.14,2.79,3:0:32,34.219379N,-112.948669W,1118.00,0.01,16
16143296,28.82,1059.58,40,19.00,-8.44,4.18,2.79,3:0:33,34.219379N,-112.948669W,1118.00,0.02,16
16144297,28.82,1059.58,40,18.96,-8.50,4.20,2.80,3:0:34,34.219379N,-112.948669W,1118.00,0.01,16
16145298,28.83,1059.48,38,18.98,-8.44,4.17,2.75,3:0:35,34.219379N,-112.948669W,1118.00,0.01,16
16146299,28.84,1059.39,42,18.99,-8.44,4.21,2.79,3:0:36,34.219379N,-112.948669W,1118.00,0.01,16
16147300,28.85,1059.39,44,19.00,-8.35,4.33,2.78,3:0:37,34.219379N,-112.948669W,1118.00,0.01,16
16148301,28.85,1059.39,33,19.03,-8.32,4.36,2.80,3:0:38,34.219379N,-112.948669W,1118.00,0.01,16
16149302,28.85,1059.39,34,19.02,-8.39,4.23,2.79,3:0:39,34.219379N,-112.948669W,1118.00,0.01,16
16150303,28.82,1059.48,38,19.00,-8.44,4.18,2.76,3:0:40,34.219379N,-112.948669W,1118.00,0.01,16
16151304,28.79,1059.58,49,18.95,-8.38,4.25,2.75,3:0:41,34.219379N,-112.948669W,1118.00,0.01,16
16152305,28.78,1059.58,42,18.99,-8.31,4.32,2.79,3:0:42,34.219379N,-112.948669W,1118.00,0.01,16
16153306,28.76,1059.67,36,19.00,-8.65,4.05,2.81,3:0:43,34.219379N,-112.948669W,1118.00,0.02,16
16154307,28.75,1059.76,48,19.02,-8.48,4.35,2.77,3:0:44,34.219379N,-112.948669W,1118.00,0.01,16
16155308,28.72,1059.67,52,19.04,-8.58,4.00,2.76,3:0:45,34.219379N,-112.948669W,1118.00,0.01,16
16156309,28.70,1059.76,50,19.04,-8.37,4.15,2.71,3:0:46,34.219379N,-112.948669W,1118.00,0.01,16
16157310,28.67,1059.76,52,19.04,-8.49,4.15,2.79,3:0:47,34.219379N,-112.948669W,1118.00,0.00,16
16158311,28.65,1059.76,52,19.00,-8.48,4.24,2.79,3:0:48,34.219379N,-112.948669W,1118.00,0.01,16
16159312,28.64,1059.76,45,18.99,-8.46,4.27,2.78,3:0:49,34.219379N,-112.948669W,1118.00,0.01,16
16160313,28.63,1059.67,45,19.06,-8.36,4.22,2.72,3:0:50,34.219379N,-112.948669W,1118.00,0.01,15
16161314,28.62,1059.76,45,19.03,-8.37,4.25,2.72,3:0:51,34.219379N,-112.948669W,1118.00,0.02,15
16162315,28.62,1059.67,44,19.05,-8.50,4.13,2.76,3:0:52,34.219379N,-112.948669W,1118.00,0.01,16
16163316,28.60,1059.76,45,19.03,-8.47,4.26,2.74,3:0:53,34.219379N,-112.948669W,1118.00,0.00,16
16164317,28.59,1059.67,36,19.02,-8.25,4.47,2.75,3:0:54,34.219376N,-112.948669W,1118.00,0.01,16
16165318,28.58,1059.76,39,19.03,-8.44,4.37,2.77,3:0:55,34.219376N,-112.948669W,1118.00,0.01,16
16166319,28.57,1059.76,54,19.05,-8.35,4.20,2.78,3:0:56,34.219376N,-112.948669W,1118.00,0.00,15
16167320,28.54,1059.85,48,19.03,-8.49,4.25,2.78,3:0:57,34.219376N,-112.948669W,1118.00,0.00,16
16168321,28.52,1059.85,36,19.05,-8.46,4.09,2.77,3:0:58,34.219376N,-112.948669W,1118.00,0.00,16
16169322,28.51,1059.76,35,19.06,-8.37,4.17,2.76,3:0:59,34.219376N,-112.948669W,1118.00,0.00,16
16170323,28.51,1059.67,42,19.01,-8.48,4.18,2.79,3:1:0,34.219376N,-112.948669W,1118.00,0.01,16
16171324,28.51,1059.58,40,19.05,-8.50,4.24,2.77,3:1:1,34.219376N,-112.948669W,1118.00,0.00,16
16172325,28.50,1059.67,40,19.05,-8.41,4.27,2.77,3:1:2,34.219376N,-112.948669W,1118.00,0.00,16
16173326,28.50,1059.67,53,19.06,-8.46,4.14,2.79,3:1:3,34.219376N,-112.948669W,1118.00,0.01,16
16174327,28.50,1059.67,44,19.05,-8.39,4.23,2.76,3:1:4,34.219376N,-112.948669W,1118.00,0.01,16
16175328,28.49,1059.67,38,19.04,-8.28,4.23,2.82,3:1:5,34.219376N,-112.948669W,1118.00,0.00,16
16176329,28.49,1059.67,33,19.06,-8.43,4.13,2.77,3:1:6,34.219376N,-112.948669W,1118.00,0.01,15
16177330,28.49,1059.67,34,19.05,-8.48,4.14,2.78,3:1:7,34.219376N,-112.948669W,1118.00,0.01,16
16178331,28.49,1059.58,38,19.07,-8.50,4.16,2.79,3:1:8,34.219376N,-112.948669W,1118.00,0.01,15
16179332,28.49,1059.67,33,19.07,-8.55,4.13,2.78,3:1:9,34.219376N,-112.948669W,1118.00,0.01,15
16180333,28.49,1059.76,39,19.02,-8.57,4.07,2.73,3:1:10,34.219376N,-112.948669W,1118.00,0.01,15
16181334,28.47,1059.76,44,19.05,-8.53,4.17,2.80,3:1:11,34.219376N,-112.948669W,1118.00,0.01,15
16182335,28.46,1059.76,39,19.07,-8.41,4.25,2.80,3:1:12,34.219376N,-112.948669W,1118.00,0.01,15
16183336,28.46,1059.76,35,19.10,-8.44,4.19,2.76,3:1:13,34.219376N,-112.948669W,1118.00,0.01,15
16184337,28.45,1059.76,38,19.08,-8.53,4.07,2.79,3:1:14,34.219376N,-112.948669W,1118.00,0.01,15
16185338,28.45,1059.67,49,19.07,-8.46,4.17,2.79,3:1:15,34.219376N,-112.948669W,1118.00,0.01,15
16186339,28.45,1059.76,47,19.09,-8.48,4.11,2.76,3:1:16,34.219376N,-112.948669W,1118.00,0.00,16
16187340,28.44,1059.85,34,19.09,-8.50,4.14,2.79,3:1:17,34.219376N,-112.948669W,1118.00,0.01,15
16188341,28.43,1059.94,36,19.07,-8.36,4.31,2.72,3:1:18,34.219376N,-112.948669W,1118.00,0.01,16
16189342,28.42,1059.85,40,19.07,-8.41,4.22,2.80,3:1:19,34.219376N,-112.948669W,1118.00,0.01,16
16190343,28.41,1059.85,34,19.07,-8.53,4.21,2.79,3:1:20,34.219376N,-112.948669W,1118.00,0.00,16
16191344,28.40,1059.85,33,19.07,-8.48,4.14,2.79,3:1:21,34.219376N,-112.948669W,1118.00,0.01,16
16192345,28.40,1059.67,43,19.06,-8.45,4.13,2.76,3:1:22,34.219376N,-112.948669W,1118.00,0.01,16
16193346,28.40,1059.67,38,19.07,-8.50,4.15,2.82,3:1:23,34.219376N,-112.948669W,1118.00,0.01,15
16194347,28.39,1059.67,38,19.09,-8.43,4.24,2.79,3:1:24,34.219376N,-112.948669W,1118.00,0.01,15
16195348,28.39,1059.58,36,19.06,-8.41,4.29,2.81,3:1:25,34.219376N,-112.948669W,1118.00,0.01,15
16196349,28.39,1059.67,36,19.09,-8.45,4.21,2.77,3:1:26,34.219376N,-112.948669W,1118.00,0.01,15
16197350,28.39,1059.58,36,19.12,-8.52,4.13,2.77,3:1:27,34.219376N,-112.948669W,1118.00,0.01,15
16198351,28.40,1059.48,34,19.08,-8.49,4.20,2.77,3:1:28,34.219376N,-112.948669W,1118.00,0.01,15
16199352,28.40,1059.48,34,19.08,-8.48,4.19,2.77,3:1:29,34.219376N,-112.948669W,1118.00,0.00,15
16200353,28.40,1059.39,35,19.06,-8.41,4.18,2.76,3:1:30,34.219376N,-112.948669W,1118.00,0.01,14
16201354,28.40,1059.39,39,19.07,-8.48,4.21,2.79,3:1:31,34.219376N,-112.948669W,1118.00,0.01,14
16202355,28.39,1059.48,33,19.10,-8.43,4.21,2.74,3:1:32,34.219376N,-112.948669W,1118.00,0.01,14
16203356,28.39,1059.48,34,19.09,-8.47,4.17,2.80,3:1:33,34.219379N,-112.948669W,1118.00,0.00,15
16204357,28.38,1059.48,34,19.10,-8.44,4.14,2.76,3:1:34,34.219379N,-112.948669W,1118.00,0.01,15
16205358,28.39,1059.58,38,19.09,-8.60,4.18,2.78,3:1:35,34.219379N,-112.948669W,1118.00,0.01,16
16206359,28.40,1059.48,40,19.12,-8.53,4.13,2.72,3:1:36,34.219379N,-112.948669W,1118.00,0.02,16
16207360,28.40,1059.48,53,19.11,-8.62,4.00,2.71,3:1:37,34.219379N,-112.948669W,1118.00,0.01,16
16208361,28.39,1059.58,38,19.12,-8.63,4.04,2.81,3:1:38,34.219379N,-112.948669W,1118.00,0.02,15
16209362,28.38,1059.58,48,19.16,-8.34,4.35,2.76,3:1:39,34.219379N,-112.948669W,1118.00,0.01,15
16210363,28.36,1059.58,40,19.11,-8.38,4.32,2.76,3:1:40,34.219379N,-112.948669W,1118.00,0.00,15
16211364,28.35,1059.67,33,19.11,-8.41,4.28,2.82,3:1:41,34.219379N,-112.948669W,1118.00,0.01,16
16212365,28.34,1059.48,40,19.10,-8.43,4.27,2.74,3:1:42,34.219379N,-112.948669W,1118.00,0.01,16
16213366,28.33,1059.48,38,19.09,-8.40,4.45,2.79,3:1:43,34.219379N,-112.948669W,1118.00,0.01,16
16214367,28.33,1059.58,36,19.16,-8.43,4.20,2.76,3:1:44,34.219379N,-112.948669W,1118.00,0.00,16
16215368,28.32,1059.58,35,19.08,-8.40,4.18,2.75,3:1:45,34.219379N,-112.948669W,1118.00,0.01,16
16216369,28.30,1059.48,45,19.12,-8.53,4.15,2.79,3:1:46,34.219379N,-112.948669W,1118.00,0.01,14
