time_since_start,bme_temp,bme_alt,uv,ism_temp,acc_x,acc_y,acc_z,gps_time,latitude,longitude,gps_alt,speed,sats
902068,24.63,419.13,31,28.86,-8.70,4.43,-0.16,10:46:33,33.664631N,-114.007446W,483.40,0.12,17
903069,24.63,419.22,33,28.87,-8.69,4.42,-0.16,10:46:34,33.664631N,-114.007446W,483.50,0.05,17
904070,24.63,419.22,31,28.86,-8.69,4.42,-0.17,10:46:35,33.664631N,-114.007446W,483.50,0.08,17
905071,24.62,419.13,30,28.84,-8.69,4.43,-0.17,10:46:36,33.664631N,-114.007446W,483.50,0.05,17
906072,24.63,419.22,31,28.87,-8.70,4.42,-0.17,10:46:37,33.664631N,-114.007446W,483.50,0.07,17
907073,24.64,419.22,31,28.86,-8.69,4.42,-0.17,10:46:38,33.664631N,-114.007446W,483.50,0.06,17
908074,24.64,419.31,30,28.90,-8.70,4.43,-0.17,10:46:39,33.664631N,-114.007446W,483.60,0.06,17
909075,24.65,419.31,31,28.85,-8.68,4.42,-0.17,10:46:40,33.664631N,-114.007446W,483.60,0.09,17
910076,24.67,419.22,30,28.91,-8.69,4.41,-0.17,10:46:41,33.664631N,-114.007446W,483.50,0.09,17
911077,24.68,419.13,30,28.87,-8.70,4.43,-0.18,10:46:42,33.664631N,-114.007446W,483.40,0.10,18
912078,24.70,419.22,31,28.88,-8.69,4.42,-0.17,10:46:43,33.664631N,-114.007439W,483.40,0.07,18
913079,24.72,419.22,31,28.87,-8.69,4.42,-0.17,10:46:44,33.664631N,-114.007439W,483.40,0.17,18
914080,24.74,419.31,31,28.91,-8.70,4.42,-0.18,10:46:45,33.664631N,-114.007439W,483.40,0.12,18
915081,24.74,419.22,30,28.88,-8.69,4.42,-0.18,10:46:46,33.664631N,-114.007439W,483.40,0.08,18
916082,24.72,419.22,31,28.85,-8.69,4.42,-0.17,10:46:47,33.664631N,-114.007439W,483.30,0.09,18
917083,24.71,419.13,31,28.87,-8.70,4.42,-0.18,10:46:48,33.664631N,-114.007439W,483.30,0.24,18
918084,24.70,419.13,30,28.87,-8.69,4.42,-0.18,10:46:49,33.664631N,-114.007439W,483.30,0.15,18
919085,24.71,419.13,30,28.89,-8.68,4.43,-0.17,10:46:50,33.664631N,-114.007446W,483.30,0.13,18
920086,24.71,419.13,31,28.91,-8.68,4.43,-0.18,10:46:51,33.664631N,-114.007439W,483.30,0.05,18
921087,24.72,419.13,33,28.91,-8.70,4.43,-0.17,10:46:52,33.664631N,-114.007439W,483.30,0.02,18
922088,24.74,419.05,33,28.92,-8.69,4.42,-0.17,10:46:53,33.664631N,-114.007439W,483.30,0.05,18
923089,24.77,419.05,31,28.94,-8.69,4.42,-0.18,10:46:54,33.664631N,-114.007439W,483.30,0.08,18
924090,24.79,419.05,31,28.91,-8.69,4.42,-0.18,10:46:55,33.664631N,-114.007439W,483.30,0.05,18
925091,24.82,419.05,30,28.90,-8.69,4.43,-0.17,10:46:56,33.664631N,-114.007439W,483.30,0.02,18
926092,24.83,418.96,30,28.92,-8.69,4.43,-0.17,10:46:57,33.664631N,-114.007439W,483.30,0.01,18
927093,24.85,419.05,25,28.87,-8.69,4.42,-0.17,10:46:58,33.664631N,-114.007439W,483.30,0.09,18
928094,24.86,419.13,25,28.93,-8.69,4.42,-0.17,10:46:59,33.664631N,-114.007439W,483.30,0.20,18
929095,24.88,419.13,25,28.94,-8.69,4.42,-0.17,10:47:0,33.664631N,-114.007439W,483.20,0.01,18
930096,24.87,419.05,26,28.96,-8.69,4.42,-0.17,10:47:1,33.664631N,-114.007439W,483.20,0.06,18
931097,24.87,419.13,28,28.91,-8.69,4.42,-0.17,10:47:2,33.664631N,-114.007439W,483.20,0.20,18
932098,24.87,419.13,26,28.92,-8.70,4.42,-0.16,10:47:3,33.664631N,-114.007439W,483.20,0.14,18
933099,24.88,419.13,26,28.91,-8.70,4.42,-0.18,10:47:4,33.664631N,-114.007439W,483.10,0.12,18
934100,24.88,419.13,28,28.94,-8.69,4.42,-0.18,10:47:5,33.664627N,-114.007439W,483.10,0.02,18
935101,24.89,419.13,28,28.97,-8.70,4.41,-0.17,10:47:6,33.664627N,-114.007439W,483.10,0.35,18
936102,24.90,419.05,30,28.95,-8.69,4.42,-0.17,10:47:7,33.664627N,-114.007439W,483.00,0.31,18
937103,24.92,419.05,31,28.95,-8.70,4.43,-0.17,10:47:8,33.664627N,-114.007439W,483.00,0.05,18
938104,24.94,418.96,31,28.89,-8.69,4.43,-0.17,10:47:9,33.664627N,-114.007439W,483.00,0.08,18
939105,24.94,418.96,30,28.96,-8.68,4.43,-0.17,10:47:10,33.664627N,-114.007439W,482.90,0.14,18
940106,24.94,418.96,31,28.93,-8.69,4.41,-0.18,10:47:11,33.664627N,-114.007439W,482.90,0.08,18
941107,24.94,419.05,30,28.92,-8.69,4.43,-0.17,10:47:12,33.664627N,-114.007439W,482.90,0.14,18
942108,24.94,418.96,31,28.94,-8.69,4.42,-0.17,10:47:13,33.664627N,-114.007439W,482.90,0.09,18
943109,24.93,419.05,30,28.93,-8.68,4.42,-0.17,10:47:14,33.664627N,-114.007439W,482.90,0.00,18
944110,24.90,418.96,31,28.97,-8.69,4.43,-0.16,10:47:15,33.664627N,-114.007439W,482.90,0.01,18
945111,24.90,418.96,30,28.97,-8.69,4.42,-0.18,10:47:16,33.664627N,-114.007439W,482.90,0.13,18
946112,24.88,419.05,30,28.98,-8.70,4.42,-0.17,10:47:17,33.664627N,-114.007439W,482.90,0.12,18
947113,24.88,419.05,31,28.94,-8.69,4.43,-0.17,10:47:18,33.664627N,-114.007439W,483.00,0.14,18
948114,24.88,419.05,31,28.94,-8.69,4.42,-0.17,10:47:19,33.664627N,-114.007439W,482.80,0.09,18
949115,24.87,418.96,30,29.00,-8.69,4.42,-0.17,10:47:20,33.664627N,-114.007439W,482.80,0.16,18
950116,24.86,418.96,30,28.92,-8.70,4.42,-0.18,10:47:21,33.664627N,-114.007439W,482.80,0.01,18
951117,24.82,418.96,30,28.98,-8.68,4.42,-0.17,10:47:22,33.664627N,-114.007439W,482.80,0.06,18
952118,24.80,418.87,33,29.01,-8.67,4.42,-0.17,10:47:23,33.664627N,-114.007439W,482.80,0.05,18
953119,24.78,418.87,31,28.99,-8.68,4.42,-0.17,10:47:24,33.664627N,-114.007439W,482.80,0.08,18
954120,24.77,418.87,33,29.01,-8.68,4.43,-0.18,10:47:25,33.664627N,-114.007439W,482.80,0.09,18
955121,24.77,418.79,31,28.99,-8.69,4.42,-0.16,10:47:26,33.664627N,-114.007439W,482.80,0.06,18
956122,24.77,418.87,31,29.01,-8.68,4.42,-0.18,10:47:27,33.664627N,-114.007439W,482.80,0.08,18
957123,24.76,418.96,33,29.00,-8.70,4.42,-0.16,10:47:28,33.664627N,-114.007439W,482.80,0.08,18
958124,24.75,418.96,33,28.99,-8.69,4.41,-0.17,10:47:29,33.664627N,-114.007439W,482.80,0.06,18
959125,24.74,418.96,31,29.02,-8.69,4.43,-0.18,10:47:30,33.664627N,-114.007439W,482.80,0.06,18
960126,24.72,418.96,31,29.00,-8.69,4.43,-0.17,10:47:31,33.664627N,-114.007439W,482.80,0.13,18
961127,24.71,418.96,31,29.04,-8.69,4.43,-0.17,10:47:32,33.664627N,-114.007439W,482.80,0.31,18
962128,24.71,418.87,30,29.04,-8.70,4.42,-0.18,10:47:33,33.664623N,-114.007439W,482.90,0.44,18
963129,24.72,418.87,29,29.02,-8.70,4.42,-0.17,10:47:34,33.664623N,-114.007439W,482.80,0.35,18
964130,24.73,418.87,30,29.03,-8.68,4.43,-0.17,10:47:35,33.664623N,-114.007439W,482.80,0.28,18
965131,24.74,418.96,34,29.05,-8.69,4.42,-0.18,10:47:36,33.664623N,-114.007439W,482.80,0.14,18
966132,24.75,419.05,34,29.07,-8.70,4.42,-0.18,10:47:37,33.664623N,-114.007439W,482.70,0.13,18
967133,24.75,419.13,33,29.03,-8.69,4.42,-0.18,10:47:38,33.664623N,-114.007439W,482.70,0.09,18
968134,24.75,419.13,34,29.05,-8.69,4.42,-0.18,10:47:39,33.664623N,-114.007439W,482.70,0.03,18
969135,24.75,419.22,34,29.04,-8.69,4.43,-0.17,10:47:40,33.664623N,-114.007439W,482.70,0.08,18
970136,24.75,419.22,34,29.07,-8.69,4.43,-0.18,10:47:41,33.664623N,-114.007439W,482.70,0.07,18
971137,24.75,419.22,34,29.05,-8.70,4.42,-0.17,10:47:42,33.664623N,-114.007439W,482.70,0.05,18
972138,24.75,419.31,34,29.04,-8.69,4.42,-0.18,10:47:43,33.664623N,-114.007439W,482.70,0.06,18
973139,24.75,419.31,34,29.08,-8.70,4.43,-0.17,10:47:44,33.664623N,-114.007439W,482.70,0.08,18
974140,24.74,419.39,35,29.06,-8.70,4.42,-0.17,10:47:45,33.664623N,-114.007439W,482.70,0.13,18
975141,24.74,419.31,34,29.05,-8.69,4.42,-0.17,10:47:46,33.664623N,-114.007439W,482.70,0.18,18
976142,24.74,419.31,34,29.07,-8.69,4.43,-0.17,10:47:47,33.664623N,-114.007439W,482.70,0.17,18
977143,24.74,419.31,34,29.11,-8.70,4.44,-0.17,10:47:48,33.664623N,-114.007439W,482.70,0.09,18
978144,24.74,419.39,34,29.05,-8.69,4.43,-0.17,10:47:49,33.664623N,-114.007439W,482.60,0.07,18
979145,24.75,419.31,34,29.04,-8.69,4.43,-0.17,10:47:50,33.664623N,-114.007439W,482.60,0.05,18
980146,24.76,419.31,34,29.09,-8.69,4.42,-0.18,10:47:51,33.664623N,-114.007439W,482.60,0.07,18
981147,24.76,419.31,33,29.08,-8.71,4.42,-0.18,10:47:52,33.664623N,-114.007439W,482.60,0.14,18
982148,24.76,419.13,34,29.11,-8.69,4.41,-0.18,10:47:53,33.664623N,-114.007439W,482.60,0.08,18
983149,24.77,419.13,29,29.09,-8.69,4.42,-0.19,10:47:54,33.664623N,-114.007439W,482.60,0.10,18
984150,24.77,419.13,33,29.05,-8.69,4.43,-0.17,10:47:55,33.664623N,-114.007439W,482.60,0.05,18
985151,24.78,419.22,34,29.11,-8.70,4.43,-0.18,10:47:56,33.664623N,-114.007439W,482.60,0.02,18
986152,24.79,419.22,34,29.09,-8.70,4.42,-0.18,10:47:57,33.664623N,-114.007439W,482.60,0.12,18
987153,24.79,419.22,34,29.08,-8.69,4.42,-0.17,10:47:58,33.664623N,-114.007439W,482.60,0.06,18
988154,24.79,419.31,34,29.08,-8.68,4.42,-0.18,10:47:59,33.664623N,-114.007439W,482.60,0.03,18
989155,24.79,419.22,33,29.09,-8.69,4.42,-0.18,10:48:0,33.664623N,-114.007439W,482.60,0.09,18
990156,24.78,419.13,31,29.08,-8.68,4.41,-0.18,10:48:1,33.664623N,-114.007439W,482.60,0.12,18
991157,24.77,419.13,33,29.09,-8.69,4.42,-0.18,10:48:2,33.664623N,-114.007439W,482.60,0.06,18
992158,24.75,419.05,33,29.13,-8.69,4.42,-0.19,10:48:3,33.664623N,-114.007439W,482.60,0.17,18
993159,24.74,418.96,33,29.10,-8.69,4.42,-0.17,10:48:4,33.664623N,-114.007439W,482.60,0.09,18
994160,24.71,419.05,30,29.10,-8.68,4.42,-0.17,10:48:5,33.664627N,-114.007439W,482.60,0.03,18
995161,24.70,419.05,33,29.13,-8.69,4.42,-0.17,10:48:6,33.664627N,-114.007439W,482.50,0.03,18
996162,24.69,419.48,31,29.12,-12.87,5.36,-0.50,10:48:7,33.664627N,-114.007439W,482.50,0.06,18
997163,24.69,419.48,21,29.09,-7.30,2.65,1.83,10:48:8,33.664627N,-114.007439W,482.50,0.22,18
998164,24.69,419.65,18,29.12,-9.86,2.72,0.22,10:48:9,33.664627N,-114.007439W,482.50,0.52,18
999165,24.68,419.91,19,29.12,-8.89,3.69,0.70,10:48:10,33.664623N,-114.007439W,482.80,0.10,18
1000166,24.67,420.09,16,29.12,-8.71,4.39,0.20,10:48:11,33.664623N,-114.007446W,483.00,0.05,18
1001167,24.66,420.17,16,29.13,-9.01,3.68,-0.47,10:48:12,33.664627N,-114.007439W,483.00,0.02,18
1002168,24.64,420.35,16,29.10,-8.96,3.69,-0.39,10:48:13,33.664623N,-114.007446W,483.00,0.07,18
1003169,24.63,420.43,18,29.10,-9.11,3.63,-0.39,10:48:14,33.664627N,-114.007446W,483.00,0.21,18
1004170,24.63,420.43,18,29.12,-9.23,3.13,-0.01,10:48:15,33.664623N,-114.007446W,483.00,0.20,18
1005171,24.64,420.26,18,29.12,-9.34,3.90,-0.20,10:48:16,33.664623N,-114.007446W,483.00,0.18,18
1006172,24.64,420.09,18,29.15,-8.70,4.19,0.00,10:48:17,33.664623N,-114.007439W,483.10,0.41,18
1007173,24.64,420.35,18,29.14,-8.72,4.07,-0.72,10:48:18,33.664623N,-114.007446W,483.10,0.25,18
1008174,24.62,420.17,16,29.12,-8.89,3.69,-0.92,10:48:19,33.664623N,-114.007446W,483.10,0.28,18
1009175,24.61,420.00,18,29.12,-8.96,3.53,-0.74,10:48:20,33.664623N,-114.007446W,483.10,0.10,18
1010176,24.60,419.91,16,29.17,-8.95,3.51,-0.80,10:48:21,33.664623N,-114.007446W,483.10,0.05,18
1011177,24.60,419.91,16,29.12,-9.00,3.48,-0.69,10:48:22,33.664623N,-114.007446W,483.10,0.05,18
1012178,24.60,419.83,19,29.16,-8.90,3.26,0.00,10:48:23,33.664623N,-114.007446W,483.10,0.10,18
1013179,24.60,419.74,19,29.12,-8.79,3.80,0.64,10:48:24,33.664623N,-114.007446W,483.10,0.29,18
1014180,24.60,419.83,20,29.13,-9.36,3.46,1.09,10:48:25,33.664623N,-114.007446W,483.10,0.37,18
1015181,24.58,419.91,40,29.14,-6.95,2.77,0.62,10:48:26,33.664623N,-114.007446W,483.10,0.36,18
1016182,24.56,419.91,31,29.15,-10.70,5.54,-2.14,10:48:27,33.664623N,-114.007439W,483.10,0.22,18
1017183,24.52,419.74,33,29.18,-8.68,4.43,-0.18,10:48:28,33.664623N,-114.007439W,483.00,0.29,18
1018184,24.50,419.83,31,29.13,-8.68,4.43,-0.19,10:48:29,33.664623N,-114.007439W,483.00,0.21,18
1019185,24.49,419.74,31,29.14,-8.69,4.43,-0.18,10:48:30,33.664623N,-114.007439W,483.00,0.15,18
1020186,24.48,419.74,31,29.16,-8.69,4.44,-0.19,10:48:31,33.664623N,-114.007439W,483.00,0.09,18
1021187,24.49,419.57,31,29.12,-8.68,4.44,-0.20,10:48:32,33.664623N,-114.007439W,483.00,0.13,18
1022188,24.49,419.57,30,29.17,-8.69,4.43,-0.19,10:48:33,33.664623N,-114.007439W,483.00,0.03,18
1023189,24.50,419.48,31,29.18,-8.68,4.44,-0.19,10:48:34,33.664623N,-114.007439W,482.90,0.06,18
1024190,24.50,419.48,30,29.16,-8.69,4.43,-0.20,10:48:35,33.664623N,-114.007439W,482.90,0.03,18
1025191,24.50,419.48,30,29.16,-8.68,4.44,-0.19,10:48:36,33.664623N,-114.007439W,482.90,0.10,18
1026192,24.50,419.39,29,29.15,-8.68,4.43,-0.18,10:48:37,33.664623N,-114.007439W,482.90,0.16,18
1027193,24.50,419.31,29,29.18,-8.70,4.43,-0.19,10:48:38,33.664623N,-114.007439W,482.90,0.08,18
1028194,24.48,419.22,30,29.18,-8.68,4.43,-0.18,10:48:39,33.664623N,-114.007439W,482.90,0.09,18
1029195,24.48,419.05,30,29.14,-8.69,4.45,-0.19,10:48:40,33.664623N,-114.007439W,482.90,0.17,18
1030196,24.50,419.22,31,29.15,-8.68,4.43,-0.18,10:48:41,33.664623N,-114.007439W,482.90,0.12,18
1031197,24.51,419.31,30,29.17,-8.69,4.43,-0.19,10:48:42,33.664623N,-114.007439W,482.90,0.37,18
1032198,24.52,419.48,31,29.20,-8.69,4.44,-0.20,10:48:43,33.664623N,-114.007439W,482.90,0.23,18
1033199,24.52,419.48,31,29.23,-8.67,4.44,-0.20,10:48:44,33.664619N,-114.007439W,483.00,0.05,18
1034200,24.51,419.48,30,29.19,-8.69,4.43,-0.18,10:48:45,33.664619N,-114.007439W,483.00,0.05,18
1035201,24.49,419.57,31,29.20,-8.68,4.43,-0.20,10:48:46,33.664619N,-114.007439W,483.00,0.09,18
1036202,24.49,419.57,31,29.19,-8.69,4.43,-0.20,10:48:47,33.664619N,-114.007439W,483.00,0.29,18
1037203,24.49,419.57,31,29.17,-8.68,4.44,-0.19,10:48:48,33.664619N,-114.007439W,483.00,0.38,18
1038204,24.50,419.48,31,29.20,-8.68,4.44,-0.19,10:48:49,33.664619N,-114.007439W,483.00,0.18,18
1039205,24.52,419.57,31,29.19,-8.68,4.43,-0.19,10:48:50,33.664619N,-114.007439W,483.00,0.15,18
1040206,24.53,419.57,31,29.23,-8.69,4.44,-0.20,10:48:51,33.664619N,-114.007439W,483.00,0.15,18
1041207,24.54,419.57,31,29.23,-8.68,4.43,-0.18,10:48:52,33.664619N,-114.007439W,483.00,0.07,18
1042208,24.55,419.57,31,29.19,-8.69,4.44,-0.19,10:48:53,33.664619N,-114.007439W,483.00,0.02,18
1043209,24.55,419.57,31,29.25,-8.69,4.44,-0.19,10:48:54,33.664619N,-114.007439W,483.00,0.09,18
1044210,24.56,419.57,31,29.25,-8.68,4.44,-0.19,10:48:55,33.664619N,-114.007439W,483.00,0.14,18
1045211,24.56,419.57,31,29.24,-8.69,4.43,-0.19,10:48:56,33.664619N,-114.007446W,483.00,0.06,18
1046212,24.57,419.48,31,29.25,-8.68,4.44,-0.18,10:48:57,33.664619N,-114.007446W,483.00,0.06,18
1047213,24.58,419.57,31,29.25,-8.69,4.44,-0.20,10:48:58,33.664619N,-114.007446W,483.00,0.06,18
1048214,24.59,419.57,31,29.29,-8.68,4.43,-0.19,10:48:59,33.664619N,-114.007446W,483.00,0.06,18
1049215,24.60,419.57,31,29.22,-8.69,4.43,-0.19,10:49:0,33.664619N,-114.007446W,483.00,0.21,18
1050216,24.60,419.57,31,29.22,-8.68,4.43,-0.19,10:49:1,33.664619N,-114.007446W,483.00,0.06,18
1051217,24.62,419.48,30,29.28,-8.69,4.44,-0.19,10:49:2,33.664619N,-114.007439W,483.00,0.21,18
1052218,24.62,419.57,30,29.25,-8.68,4.44,-0.20,10:49:3,33.664619N,-114.007439W,483.00,0.16,18
1053219,24.63,419.48,30,29.21,-8.69,4.44,-0.19,10:49:4,33.664619N,-114.007439W,483.00,0.10,18
1054220,24.62,419.57,31,29.27,-8.69,4.43,-0.19,10:49:5,33.664619N,-114.007446W,482.90,0.08,18
1055221,24.61,419.57,31,29.26,-8.68,4.44,-0.18,10:49:6,33.664619N,-114.007446W,482.90,0.02,18
1056222,24.58,419.65,30,29.26,-8.68,4.45,-0.20,10:49:7,33.664619N,-114.007446W,482.90,0.05,18
1057223,24.56,419.74,30,29.27,-8.68,4.44,-0.19,10:49:8,33.664619N,-114.007446W,482.90,0.12,18
1058224,24.55,419.83,30,29.27,-8.68,4.44,-0.18,10:49:9,33.664619N,-114.007446W,482.90,0.15,18
1059225,24.55,419.83,29,29.30,-8.69,4.44,-0.20,10:49:10,33.664619N,-114.007446W,482.90,0.17,18
1060226,24.55,419.83,21,29.31,-8.68,4.43,-0.19,10:49:11,33.664619N,-114.007446W,482.90,0.07,18
1061227,24.55,419.83,25,29.33,-8.68,4.44,-0.18,10:49:12,33.664619N,-114.007446W,482.90,0.15,18
1062228,24.54,419.91,26,29.31,-8.69,4.44,-0.19,10:49:13,33.664619N,-114.007446W,482.90,0.10,18
1063229,24.53,419.91,25,29.32,-8.75,4.50,-0.03,10:49:14,33.664619N,-114.007446W,482.80,0.25,18
1064230,24.51,419.91,23,29.29,-8.68,4.45,-0.20,10:49:15,33.664619N,-114.007446W,482.80,0.12,18
1065231,24.49,419.83,23,29.31,-8.52,4.59,-0.17,10:49:16,33.664619N,-114.007446W,482.70,0.09,18
1066232,24.49,419.74,25,29.34,-8.69,4.43,-0.19,10:49:17,33.664619N,-114.007446W,482.80,0.07,16
1067233,24.49,419.74,24,29.33,-8.69,4.43,-0.19,10:49:18,33.664619N,-114.007446W,482.70,0.06,17
1068234,24.49,419.74,28,29.27,-8.69,4.43,-0.20,10:49:19,33.664619N,-114.007446W,482.70,0.10,17
1069235,24.49,419.65,29,29.33,-8.69,4.43,-0.20,10:49:20,33.664619N,-114.007446W,482.70,0.07,18
1070236,24.50,419.48,30,29.35,-8.68,4.42,-0.20,10:49:21,33.664619N,-114.007446W,482.70,0.15,18
1071237,24.51,419.48,29,29.34,-8.69,4.43,-0.19,10:49:22,33.664619N,-114.007446W,482.70,0.06,18
1072238,24.52,419.48,30,29.34,-8.68,4.44,-0.19,10:49:23,33.664619N,-114.007446W,482.70,0.01,18
1073239,24.52,419.48,30,29.30,-8.68,4.44,-0.19,10:49:24,33.664619N,-114.007446W,482.70,0.08,18
1074240,24.51,419.39,30,29.37,-8.69,4.43,-0.19,10:49:25,33.664619N,-114.007446W,482.70,0.10,18
1075241,24.50,419.39,30,29.33,-8.69,4.43,-0.19,10:49:26,33.664619N,-114.007446W,482.70,0.07,18
1076242,24.50,419.48,29,29.34,-8.69,4.44,-0.18,10:49:27,33.664619N,-114.007446W,482.70,0.13,18
1077243,24.50,419.48,29,29.36,-8.68,4.44,-0.19,10:49:28,33.664619N,-114.007446W,482.70,0.08,18
1078244,24.51,419.48,30,29.37,-8.69,4.42,-0.19,10:49:29,33.664619N,-114.007446W,482.70,0.07,18
1079245,24.53,419.48,30,29.33,-8.68,4.43,-0.19,10:49:30,33.664619N,-114.007446W,482.70,0.09,17
1080246,24.54,419.39,30,29.37,-8.68,4.44,-0.19,10:49:31,33.664619N,-114.007446W,482.70,0.08,17
1081247,24.56,419.39,31,29.35,-8.69,4.43,-0.18,10:49:32,33.664619N,-114.007446W,482.70,0.20,17
1082248,24.59,419.39,30,29.35,-8.68,4.43,-0.18,10:49:33,33.664619N,-114.007446W,482.70,0.14,17
1083249,24.61,419.48,30,29.38,-8.69,4.43,-0.20,10:49:34,33.664619N,-114.007446W,482.70,0.08,17
1084250,24.64,419.65,23,29.37,-8.67,4.43,-0.19,10:49:35,33.664619N,-114.007446W,482.70,0.05,17
1085251,24.66,419.74,21,29.37,-8.69,4.43,-0.19,10:49:36,33.664619N,-114.007446W,482.60,0.10,17
1086252,24.67,419.74,23,29.37,-8.68,4.44,-0.19,10:49:37,33.664619N,-114.007446W,482.60,0.05,17
1087253,24.68,419.83,20,29.38,-9.29,6.62,0.43,10:49:38,33.664619N,-114.007446W,482.60,0.05,17
1088254,24.67,419.91,36,29.35,-6.38,2.56,-0.73,10:49:39,33.664619N,-114.007446W,482.60,0.07,17
1089255,24.67,420.09,29,29.33,-9.17,3.39,0.33,10:49:40,33.664619N,-114.007446W,482.60,0.64,17
1090256,24.66,420.35,20,29.39,-9.29,3.79,0.63,10:49:41,33.664619N,-114.007446W,483.00,0.61,17
1091257,24.64,420.35,24,29.38,-9.31,3.87,0.19,10:49:42,33.664619N,-114.007446W,483.00,0.52,18
1092258,24.63,420.35,24,29.37,-8.90,4.26,0.11,10:49:43,33.664619N,-114.007446W,483.00,0.26,18
1093259,24.63,420.26,23,29.40,-8.74,4.16,0.06,10:49:44,33.664619N,-114.007446W,483.00,0.14,18
1094260,24.64,420.35,19,29.43,-8.72,4.69,-0.13,10:49:45,33.664619N,-114.007446W,483.10,0.13,18
1095261,24.65,420.43,18,29.38,-8.95,3.67,-0.23,10:49:46,33.664619N,-114.007446W,483.10,0.20,18
1096262,24.66,420.43,24,29.37,-8.80,3.62,0.09,10:49:47,33.664619N,-114.007446W,483.20,0.21,18
1097263,24.67,420.52,29,29.37,-8.34,0.83,1.11,10:49:48,33.664619N,-114.007446W,483.20,0.15,18
1098264,24.68,420.78,20,29.38,-9.54,-0.37,1.46,10:49:49,33.664619N,-114.007446W,483.20,0.30,18
1099265,24.68,421.04,19,29.40,-10.90,1.40,0.58,10:49:50,33.664619N,-114.007446W,483.20,0.08,18
1100266,24.67,421.30,19,29.35,-9.13,0.30,1.71,10:49:51,33.664619N,-114.007446W,483.20,0.15,18
1101267,24.66,421.47,19,29.40,-10.44,0.50,-0.35,10:49:52,33.664619N,-114.007446W,483.10,0.03,18
1102268,24.66,421.74,16,29.39,-11.16,3.25,-0.35,10:49:53,33.664619N,-114.007446W,483.10,0.16,18
1103269,24.65,421.65,16,29.41,-9.71,-0.06,1.56,10:49:54,33.664619N,-114.007446W,483.10,0.31,18
1104270,24.65,421.65,19,29.43,-9.95,3.47,0.67,10:49:55,33.664619N,-114.007446W,483.00,0.08,18
1105271,24.65,421.56,20,29.42,-7.09,6.61,1.78,10:49:56,33.664619N,-114.007446W,483.00,0.21,18
1106272,24.65,421.65,23,29.39,-8.69,2.80,1.92,10:49:57,33.664619N,-114.007446W,483.00,0.33,18
1107273,24.65,421.56,28,29.40,-8.59,4.90,2.86,10:49:58,33.664619N,-114.007446W,483.00,0.12,18
1108274,24.65,421.56,28,29.44,-10.33,3.36,2.64,10:49:59,33.664619N,-114.007446W,483.10,0.49,18
1109275,24.65,421.47,25,29.45,-8.81,3.10,2.86,10:50:0,33.664619N,-114.007446W,483.10,0.14,18
1110276,24.65,421.56,25,29.40,-9.56,3.76,2.59,10:50:1,33.664619N,-114.007446W,483.10,0.09,18
1111277,24.65,421.56,25,29.42,-9.18,-0.01,2.41,10:50:2,33.664619N,-114.007446W,483.10,0.46,18
1112278,24.66,421.56,26,29.40,-10.81,0.67,2.04,10:50:3,33.664619N,-114.007446W,483.10,0.09,18
1113279,24.66,421.47,30,29.39,-9.88,-0.13,3.41,10:50:4,33.664619N,-114.007446W,483.10,0.10,18
1114280,24.65,421.30,30,29.43,-9.79,1.57,2.20,10:50:5,33.664619N,-114.007446W,483.10,0.10,18
1115281,24.66,421.39,28,29.42,-9.70,0.75,1.84,10:50:6,33.664619N,-114.007446W,483.10,0.05,18
1116282,24.65,421.30,26,29.44,-9.56,1.22,1.58,10:50:7,33.664619N,-114.007446W,483.10,0.03,18
1117283,24.64,421.13,21,29.43,-9.16,2.70,-2.09,10:50:8,33.664619N,-114.007446W,483.10,0.08,18
1118284,24.64,420.87,23,29.42,-9.42,3.35,-0.44,10:50:9,33.664619N,-114.007446W,483.10,0.38,18
1119285,24.65,420.69,24,29.45,-9.06,4.31,0.54,10:50:10,33.664619N,-114.007446W,483.10,0.44,18
1120286,24.65,420.69,23,29.40,-8.49,4.91,1.01,10:50:11,33.664619N,-114.007446W,483.10,0.16,18
1121287,24.64,420.43,150,29.43,-6.01,3.82,7.13,10:50:12,33.664619N,-114.007446W,483.10,0.13,18
1122288,24.65,418.01,135,29.43,-5.63,3.51,7.27,10:50:13,33.664619N,-114.007446W,483.10,0.12,18
1123289,24.67,405.71,146,29.42,-5.23,3.51,7.84,10:50:14,33.664619N,-114.007446W,483.20,0.14,18
1124290,24.72,409.17,50,29.46,-5.86,3.58,6.85,10:50:15,33.664619N,-114.007446W,483.20,0.09,18
1125291,24.78,402.76,121,29.49,-6.02,3.42,6.81,10:50:16,33.664619N,-114.007446W,483.10,0.49,18
1126292,24.80,406.92,29,29.40,-6.82,6.50,4.37,10:50:17,33.664619N,-114.007446W,483.20,0.20,18
1127293,24.82,409.95,62,29.46,-0.02,9.71,2.12,10:50:18,33.664619N,-114.007446W,483.20,0.44,18
1128294,24.85,412.46,25,29.44,2.32,10.45,1.23,10:50:19,33.664619N,-114.007446W,483.10,0.35,18
1129295,24.88,414.28,23,29.46,1.62,9.74,1.43,10:50:20,33.664619N,-114.007446W,483.00,0.15,18
1130296,24.92,415.75,20,29.44,2.13,8.87,0.73,10:50:21,33.664619N,-114.007446W,483.00,0.06,18
1131297,24.95,416.79,24,29.47,1.92,9.53,0.82,10:50:22,33.664619N,-114.007446W,483.00,0.08,18
1132298,24.98,417.49,5,29.49,1.27,9.23,-0.13,10:50:23,33.664619N,-114.007446W,483.00,0.10,18
1133299,25.00,418.01,6,29.45,0.95,9.63,-0.80,10:50:24,33.664619N,-114.007446W,483.00,0.01,18
1134300,25.01,418.44,28,29.49,1.29,9.71,0.25,10:50:25,33.664619N,-114.007446W,483.10,0.13,18
1135301,25.03,418.79,26,29.50,2.29,9.12,0.30,10:50:26,33.664619N,-114.007446W,483.10,0.08,18
1136302,25.05,419.05,23,29.53,1.88,9.39,0.34,10:50:27,33.664619N,-114.007446W,483.10,0.03,18
1137303,25.07,419.22,23,29.50,1.92,9.34,0.55,10:50:28,33.664619N,-114.007446W,483.20,0.10,18
1138304,25.08,419.31,24,29.54,2.32,10.11,1.09,10:50:29,33.664619N,-114.007446W,483.20,0.10,18
1139305,25.09,419.39,31,29.52,1.81,8.66,1.57,10:50:30,33.664619N,-114.007446W,483.20,0.08,18
1140306,25.08,419.48,23,29.50,1.54,9.27,1.68,10:50:31,33.664619N,-114.007446W,483.20,0.22,18
1141307,25.04,419.65,28,29.53,1.34,10.22,0.65,10:50:32,33.664619N,-114.007446W,483.20,0.13,18
1142308,24.99,419.65,24,29.51,1.70,10.01,0.35,10:50:33,33.664619N,-114.007446W,483.30,0.08,18
1143309,24.94,419.83,23,29.47,1.02,10.60,0.36,10:50:34,33.664619N,-114.007446W,483.30,0.12,18
1144310,24.92,419.74,29,29.54,1.22,9.19,0.51,10:50:35,33.664619N,-114.007446W,483.30,0.06,18
1145311,24.88,419.83,26,29.54,1.91,9.29,0.64,10:50:36,33.664619N,-114.007446W,483.30,0.06,18
1146312,24.84,419.74,30,29.53,1.31,9.46,0.02,10:50:37,33.664619N,-114.007446W,483.30,0.08,18
1147313,24.81,419.91,40,29.56,-8.21,6.55,0.69,10:50:38,33.664619N,-114.007446W,483.30,0.10,18
1148314,24.76,420.00,35,29.52,-8.76,4.12,1.12,10:50:39,33.664619N,-114.007446W,483.30,0.28,18
1149315,24.71,420.17,38,29.53,-8.70,4.08,1.10,10:50:40,33.664623N,-114.007446W,483.30,0.08,18
1150316,24.66,420.35,38,29.54,-9.11,4.66,1.70,10:50:41,33.664623N,-114.007446W,483.40,0.09,18
1151317,24.61,420.43,38,29.55,-8.69,4.13,1.40,10:50:42,33.664623N,-114.007446W,483.40,0.05,18
1152318,24.56,420.61,39,29.57,-8.96,3.76,1.46,10:50:43,33.664623N,-114.007446W,483.40,0.03,18
1153319,24.52,420.61,39,29.54,-8.96,3.58,1.60,10:50:44,33.664623N,-114.007446W,483.40,0.07,18
1154320,24.49,420.52,38,29.54,-8.98,3.65,2.40,10:50:45,33.664623N,-114.007446W,483.40,0.08,18
1155321,24.44,420.52,39,29.57,-9.03,3.09,1.96,10:50:46,33.664623N,-114.007446W,483.40,0.40,18
1156322,24.40,420.52,39,29.52,-8.98,3.02,2.34,10:50:47,33.664623N,-114.007446W,483.40,0.09,18
1157323,24.36,420.52,42,29.56,-9.01,2.29,1.18,10:50:48,33.664623N,-114.007446W,483.50,0.16,18
1158324,24.34,420.52,38,29.58,-9.05,3.59,1.61,10:50:49,33.664623N,-114.007446W,483.50,0.05,18
1159325,24.31,420.52,40,29.60,-8.61,3.42,1.62,10:50:50,33.664623N,-114.007446W,483.50,0.09,18
1160326,24.29,420.52,40,29.55,-9.04,3.74,1.11,10:50:51,33.664623N,-114.007446W,483.50,0.30,18
1161327,24.27,420.52,40,29.57,-8.92,3.78,1.06,10:50:52,33.664623N,-114.007446W,483.50,0.15,18
1162328,24.25,420.52,40,29.55,-9.23,3.09,1.68,10:50:53,33.664623N,-114.007446W,483.50,0.08,18
1163329,24.22,420.35,42,29.61,-9.14,3.40,1.09,10:50:54,33.664623N,-114.007446W,483.50,0.03,18
1164330,24.20,420.35,39,29.58,-9.33,3.10,1.22,10:50:55,33.664623N,-114.007446W,483.50,0.17,18
1165331,24.16,420.17,39,29.62,-9.13,3.60,1.90,10:50:56,33.664623N,-114.007446W,483.50,0.09,18
1166332,24.12,420.17,38,29.60,-8.79,4.02,2.07,10:50:57,33.664623N,-114.007446W,483.50,0.13,18
1167333,24.09,420.26,39,29.60,-8.59,3.64,2.33,10:50:58,33.664623N,-114.007446W,483.50,0.12,18
1168334,24.06,420.35,43,29.60,-8.90,3.42,2.24,10:50:59,33.664623N,-114.007446W,483.50,0.09,18
1169335,24.02,420.43,42,29.62,-8.99,3.62,2.03,10:51:0,33.664623N,-114.007446W,483.50,0.02,18
1170336,23.99,420.52,40,29.59,-8.94,3.63,1.83,10:51:1,33.664623N,-114.007446W,483.50,0.01,18
1171337,23.95,420.52,43,29.60,-8.80,3.60,1.88,10:51:2,33.664623N,-114.007446W,483.50,0.09,18
1172338,23.93,420.52,42,29.61,-8.92,3.38,2.40,10:51:3,33.664623N,-114.007446W,483.50,0.01,18
1173339,23.90,420.43,42,29.60,-8.92,3.44,2.23,10:51:4,33.664623N,-114.007446W,483.50,0.07,18
1174340,23.88,420.52,42,29.64,-8.83,3.53,1.67,10:51:5,33.664623N,-114.007446W,483.50,0.02,18
1175341,23.87,420.52,36,29.61,-8.85,3.85,1.38,10:51:6,33.664623N,-114.007446W,483.50,0.02,18
1176342,23.85,420.61,39,29.62,-9.40,3.11,1.99,10:51:7,33.664623N,-114.007446W,483.50,0.14,18
1177343,23.82,420.69,38,29.60,-9.15,3.05,0.11,10:51:8,33.664623N,-114.007446W,483.50,0.07,18
1178344,23.80,420.61,38,29.61,-8.79,4.54,0.44,10:51:9,33.664623N,-114.007446W,483.60,0.28,18
1179345,23.79,420.61,42,29.64,-9.01,3.94,0.88,10:51:10,33.664623N,-114.007446W,483.60,0.06,18
1180346,23.78,420.43,49,29.64,-8.95,3.65,2.00,10:51:11,33.664623N,-114.007446W,483.60,0.02,18
1181347,23.76,420.43,49,29.59,-8.10,4.79,2.19,10:51:12,33.664623N,-114.007446W,483.50,0.05,18
1182348,23.75,420.61,24,29.63,-9.29,4.49,1.49,10:51:13,33.664623N,-114.007446W,483.50,0.05,18
1183349,23.75,420.43,6,29.65,-8.71,3.95,1.39,10:51:14,33.664623N,-114.007446W,483.50,0.17,18
1184350,23.75,420.43,5,29.65,-9.54,2.51,1.16,10:51:15,33.664623N,-114.007446W,483.30,0.10,18
1185351,23.77,420.43,6,29.62,-9.38,2.72,1.01,10:51:16,33.664623N,-114.007446W,483.20,0.22,18
1186352,23.79,420.61,8,29.59,-9.23,3.16,1.08,10:51:17,33.664623N,-114.007446W,483.30,0.08,18
1187353,23.80,420.69,8,29.60,-9.20,3.34,0.82,10:51:18,33.664623N,-114.007446W,483.40,0.05,18
1188354,23.82,420.61,8,29.62,-9.44,3.26,0.95,10:51:19,33.664627N,-114.007446W,483.40,0.09,18
1189355,23.84,420.61,6,29.62,-9.37,3.52,0.90,10:51:20,33.664627N,-114.007446W,483.40,0.13,18
1190356,23.86,420.52,5,29.64,-9.79,0.28,0.13,10:51:21,33.664627N,-114.007446W,483.40,0.01,18
1191357,23.89,420.35,6,29.64,-9.74,0.04,0.08,10:51:22,33.664627N,-114.007446W,483.40,0.10,18
1192358,23.91,420.17,6,29.64,-9.85,0.19,0.23,10:51:23,33.664627N,-114.007446W,483.40,0.08,18
1193359,23.94,420.09,6,29.65,-9.86,0.02,0.31,10:51:24,33.664627N,-114.007446W,483.40,0.07,17
1194360,23.97,420.09,6,29.66,-9.81,0.13,0.14,10:51:25,33.664627N,-114.007446W,483.40,0.44,18
1195361,23.99,420.26,14,29.67,-8.74,2.11,1.12,10:51:26,33.664627N,-114.007446W,483.40,0.22,18
1196362,24.00,420.43,4,29.62,-8.61,3.71,-0.47,10:51:27,33.664627N,-114.007446W,483.40,0.55,18
1197363,24.02,420.43,24,29.65,-9.15,3.64,0.21,10:51:28,33.664631N,-114.007446W,483.40,0.17,18
1198364,24.03,420.43,43,29.66,-8.33,2.93,3.26,10:51:29,33.664631N,-114.007446W,483.40,0.15,18
1199365,24.04,420.35,107,29.64,-6.35,2.73,6.39,10:51:30,33.664627N,-114.007446W,483.40,0.05,18
1200366,24.04,418.87,136,29.66,-6.81,2.44,7.08,10:51:31,33.664631N,-114.007446W,483.30,0.07,18
1201367,24.02,397.83,155,29.66,-6.19,1.92,8.11,10:51:32,33.664631N,-114.007446W,483.30,0.07,18
time_since_start,bme_temp,bme_alt,uv,ism_temp,acc_x,acc_y,acc_z,gps_time,latitude,longitude,gps_alt,speed,sats
901538,26.70,968.35,0,24.05,-8.49,4.81,1.21,4:5:58,34.205528N,-112.951591W,1021.10,4.43,18
902539,26.69,968.35,0,24.12,-9.17,4.10,1.35,4:5:59,34.205528N,-112.951607W,1021.70,0.18,18
903540,26.69,968.17,0,24.09,-8.75,4.24,1.22,4:6:0,34.205528N,-112.951607W,1021.80,0.01,18
904541,26.68,968.17,0,24.08,-8.73,4.22,1.17,4:6:1,34.205528N,-112.951607W,1021.50,0.00,18
905542,26.68,968.07,0,24.07,-9.03,4.33,1.30,4:6:2,34.205528N,-112.951607W,1021.50,0.00,18
906543,26.68,967.98,0,24.06,-8.97,4.24,1.23,4:6:3,34.205528N,-112.951607W,1021.50,0.00,18
907544,26.68,967.98,0,24.11,-8.58,4.19,1.23,4:6:4,34.205528N,-112.951607W,1021.50,0.00,18
908545,26.68,967.98,0,24.05,-8.92,4.28,1.26,4:6:5,34.205528N,-112.951607W,1021.50,0.00,18
909546,26.68,968.07,0,24.08,-8.70,4.17,1.17,4:6:6,34.205528N,-112.951607W,1021.50,0.00,18
910547,26.69,968.07,0,24.00,-8.79,4.29,1.26,4:6:7,34.205528N,-112.951607W,1021.50,0.01,18
911548,26.69,968.07,0,24.07,-8.76,4.26,1.20,4:6:8,34.205528N,-112.951607W,1021.50,0.00,18
912549,26.69,968.07,0,24.06,-8.75,4.24,1.18,4:6:9,34.205528N,-112.951607W,1021.50,0.00,18
913550,26.69,968.07,0,24.14,-8.67,3.91,1.12,4:6:10,34.205528N,-112.951607W,1021.50,0.00,18
914551,26.69,967.89,0,24.07,-8.78,4.02,1.27,4:6:11,34.205528N,-112.951607W,1021.50,0.00,18
915552,26.70,967.89,0,24.04,-9.56,3.00,0.83,4:6:12,34.205528N,-112.951607W,1021.50,0.02,17
916553,26.70,967.89,0,24.10,-10.23,3.19,1.25,4:6:13,34.205528N,-112.951614W,1021.50,0.08,17
917554,26.70,967.98,0,24.06,-10.17,2.85,0.87,4:6:14,34.205524N,-112.951614W,1021.50,3.20,17
918555,26.69,968.26,0,24.07,-10.54,2.73,3.12,4:6:15,34.205517N,-112.951645W,1021.50,7.80,17
919556,26.68,968.71,0,24.10,-11.20,3.56,0.02,4:6:16,34.205505N,-112.951691W,1021.50,12.24,17
920557,26.66,969.26,0,24.10,-7.78,2.86,-0.05,4:6:17,34.205486N,-112.951759W,1021.40,15.25,17
921558,26.65,969.72,0,24.07,-12.28,5.10,3.09,4:6:18,34.205460N,-112.951820W,1021.30,14.70,17
922559,26.64,970.18,0,24.12,-8.95,5.31,0.99,4:6:19,34.205429N,-112.951897W,1021.30,13.85,17
923560,26.64,971.09,0,24.17,-7.38,0.56,0.07,4:6:20,34.205406N,-112.951950W,1021.30,10.41,17
924561,26.64,971.55,0,24.13,-6.23,0.79,-0.35,4:6:21,34.205387N,-112.951988W,1021.00,8.11,17
925562,26.64,972.19,0,24.12,-8.43,3.03,3.13,4:6:22,34.205368N,-112.952042W,1020.90,10.58,17
926563,26.64,972.46,0,24.18,-8.24,4.51,0.67,4:6:23,34.205345N,-112.952103W,1020.50,13.05,17
927564,26.63,972.65,0,24.09,-7.66,5.55,1.45,4:6:24,34.205326N,-112.952156W,1019.80,13.06,17
928565,26.62,972.74,0,24.12,-8.81,4.94,3.12,4:6:25,34.205303N,-112.952217W,1019.30,12.18,17
929566,26.60,972.83,0,24.15,-9.23,5.93,3.31,4:6:26,34.205292N,-112.952271W,1019.70,12.74,17
930567,26.59,972.92,0,24.11,-7.42,5.33,0.77,4:6:27,34.205276N,-112.952332W,1019.90,13.08,17
931568,26.57,972.92,0,24.13,-8.80,5.41,0.55,4:6:28,34.205261N,-112.952400W,1021.10,12.37,17
932569,26.56,972.92,0,24.13,-6.00,3.26,1.06,4:6:29,34.205250N,-112.952446W,1021.90,11.84,17
933570,26.54,972.65,0,24.13,-7.53,5.21,2.28,4:6:30,34.205235N,-112.952499W,1022.70,11.81,17
934571,26.52,972.65,0,24.16,-8.79,3.49,4.23,4:6:31,34.205219N,-112.952553W,1022.50,11.44,17
935572,26.51,972.28,0,24.11,-9.27,5.22,2.78,4:6:32,34.205204N,-112.952614W,1022.40,11.73,17
936573,26.49,972.19,0,24.07,-7.44,5.38,1.08,4:6:33,34.205181N,-112.952667W,1022.20,11.42,17
937574,26.47,972.10,0,24.05,-4.50,5.17,0.57,4:6:34,34.205154N,-112.952705W,1022.00,11.34,17
938575,26.46,971.82,0,24.09,-10.18,6.03,2.63,4:6:35,34.205128N,-112.952759W,1021.50,10.42,17
939576,26.45,971.37,0,24.05,-11.23,2.97,3.31,4:6:36,34.205101N,-112.952797W,1020.60,9.30,17
940577,26.44,971.27,0,24.08,-13.69,6.45,6.34,4:6:37,34.205074N,-112.952835W,1019.90,8.95,17
941578,26.43,971.00,0,24.12,-8.29,2.80,3.84,4:6:38,34.205055N,-112.952858W,1020.20,9.17,17
942579,26.42,970.82,0,24.14,-15.83,1.83,5.20,4:6:39,34.205029N,-112.952896W,1020.10,9.17,17
943580,26.41,971.00,0,24.11,-10.69,2.96,1.58,4:6:40,34.205009N,-112.952934W,1020.40,9.51,17
944581,26.41,971.18,0,24.14,-10.52,3.60,1.97,4:6:41,34.204987N,-112.952972W,1020.10,10.77,17
945582,26.41,971.18,0,24.07,-8.46,4.38,1.23,4:6:42,34.204960N,-112.953026W,1020.80,10.84,17
946583,26.41,971.37,0,24.11,-8.14,2.92,0.21,4:6:43,34.204937N,-112.953072W,1021.10,11.20,17
947584,26.41,971.37,0,24.14,-9.48,3.47,2.74,4:6:44,34.204914N,-112.953117W,1021.70,11.63,17
948585,26.40,971.37,0,24.15,-9.54,5.58,1.43,4:6:45,34.204891N,-112.953163W,1022.40,12.55,17
949586,26.39,971.27,0,24.11,-8.96,4.72,0.84,4:6:46,34.204872N,-112.953217W,1022.90,12.94,17
950587,26.38,971.09,0,24.06,-10.92,4.98,4.63,4:6:47,34.204842N,-112.953270W,1022.70,12.61,17
951588,26.37,970.91,0,24.11,-10.38,6.26,3.43,4:6:48,34.204815N,-112.953316W,1023.20,12.55,17
952589,26.36,970.73,0,24.14,-7.12,3.91,1.97,4:6:49,34.204784N,-112.953369W,1023.10,11.67,17
953590,26.35,970.54,0,24.04,-9.86,5.37,1.23,4:6:50,34.204754N,-112.953407W,1022.60,10.26,17
954591,26.35,970.27,0,24.06,-8.93,6.32,1.85,4:6:51,34.204731N,-112.953461W,1022.40,9.98,17
955592,26.35,970.09,0,24.12,-8.46,4.98,0.63,4:6:52,34.204716N,-112.953499W,1022.20,9.92,17
956593,26.35,969.90,0,24.14,-8.05,5.20,0.11,4:6:53,34.204700N,-112.953537W,1021.70,9.30,17
957594,26.35,969.72,0,24.04,-8.60,4.54,1.63,4:6:54,34.204689N,-112.953575W,1021.40,8.34,17
958595,26.34,969.54,0,24.11,-8.32,5.05,1.59,4:6:55,34.204674N,-112.953613W,1021.20,7.57,17
959596,26.34,969.45,0,24.06,-5.43,4.56,-1.38,4:6:56,34.204662N,-112.953636W,1021.70,6.20,17
960597,26.33,969.26,0,24.07,-8.91,1.69,3.30,4:6:57,34.204651N,-112.953667W,1021.50,5.13,17
961598,26.33,969.17,0,24.12,-12.58,3.71,2.31,4:6:58,34.204636N,-112.953674W,1021.50,4.83,17
962599,26.32,969.17,0,24.11,-8.76,3.25,2.96,4:6:59,34.204620N,-112.953690W,1021.20,5.26,17
963600,26.32,969.17,0,24.12,-8.42,3.43,2.64,4:7:0,34.204594N,-112.953712W,1020.60,7.46,17
964601,26.32,968.99,0,24.11,-12.81,8.86,1.92,4:7:1,34.204567N,-112.953743W,1020.00,9.10,17
965602,26.32,968.99,0,24.07,-8.55,5.14,-0.22,4:7:2,34.204533N,-112.953766W,1019.20,10.81,17
966603,26.32,968.99,0,24.08,-10.31,4.26,0.26,4:7:3,34.204502N,-112.953804W,1019.20,10.50,17
967604,26.32,969.26,0,24.04,-9.90,3.38,0.66,4:7:4,34.204472N,-112.953827W,1019.50,11.19,17
968605,26.32,969.26,0,24.07,-10.11,2.93,1.15,4:7:5,34.204433N,-112.953865W,1019.70,12.79,17
969606,26.32,969.35,0,24.07,-10.97,3.79,3.13,4:7:6,34.204391N,-112.953934W,1019.60,14.99,17
970607,26.32,969.45,0,24.11,-10.48,4.36,2.07,4:7:7,34.204342N,-112.953987W,1019.30,16.40,17
971608,26.32,969.63,0,24.10,-10.80,2.26,3.78,4:7:8,34.204296N,-112.954048W,1019.40,17.41,17
972609,26.31,969.63,0,24.17,-10.40,7.66,1.10,4:7:9,34.204247N,-112.954109W,1019.40,16.36,17
973610,26.31,969.54,0,24.11,-7.63,5.98,1.18,4:7:10,34.204201N,-112.954178W,1019.50,16.63,17
974611,26.31,969.45,0,24.09,-8.50,4.16,1.17,4:7:11,34.204155N,-112.954224W,1019.40,17.15,17
975612,26.31,969.35,0,24.12,-7.80,3.64,1.40,4:7:12,34.204102N,-112.954292W,1019.30,17.66,17
976613,26.31,969.08,0,24.12,-8.06,4.73,0.58,4:7:13,34.204052N,-112.954353W,1019.30,17.62,17
977614,26.31,969.08,0,24.09,-10.03,3.80,3.37,4:7:14,34.204002N,-112.954430W,1019.40,17.63,17
978615,26.30,968.71,0,24.08,-9.99,4.92,5.55,4:7:15,34.203957N,-112.954498W,1019.30,17.10,17
979616,26.29,968.53,0,24.12,-9.23,4.19,2.92,4:7:16,34.203907N,-112.954559W,1019.10,17.08,17
980617,26.28,968.53,0,24.07,-7.01,4.74,0.73,4:7:17,34.203857N,-112.954613W,1018.70,16.41,16
981618,26.27,968.35,0,24.07,-9.48,6.55,0.47,4:7:18,34.203808N,-112.954666W,1018.10,16.18,16
982619,26.27,968.17,0,24.12,-9.74,1.76,2.58,4:7:19,34.203751N,-112.954704W,1017.40,15.94,16
983620,26.27,968.26,0,24.14,-8.26,5.12,-0.13,4:7:20,34.203697N,-112.954742W,1016.70,16.02,16
984621,26.27,967.98,0,24.08,-9.20,4.69,1.72,4:7:21,34.203648N,-112.954781W,1016.80,15.76,16
985622,26.27,967.89,0,24.08,-7.85,4.67,0.84,4:7:22,34.203602N,-112.954826W,1016.90,15.56,16
986623,26.27,967.62,0,24.13,-8.43,4.34,1.45,4:7:23,34.203556N,-112.954895W,1016.80,16.32,16
987624,26.27,967.43,0,24.11,-7.90,3.91,1.41,4:7:24,34.203510N,-112.954956W,1016.70,16.51,16
988625,26.26,967.34,0,24.11,-8.53,4.24,1.38,4:7:25,34.203461N,-112.955009W,1016.80,16.04,16
989626,26.25,967.16,0,24.14,-8.33,5.06,0.87,4:7:26,34.203419N,-112.955070W,1016.80,15.75,16
990627,26.25,967.16,0,24.11,-7.31,6.89,-2.65,4:7:27,34.203381N,-112.955124W,1017.10,14.62,16
991628,26.24,967.07,0,24.11,-6.03,4.38,0.39,4:7:28,34.203346N,-112.955177W,1017.30,13.04,16
992629,26.24,966.79,0,24.10,-5.19,1.07,0.90,4:7:29,34.203323N,-112.955223W,1018.50,11.42,16
993630,26.24,966.61,0,24.07,-7.51,3.42,-0.77,4:7:30,34.203297N,-112.955261W,1019.20,10.83,16
994631,26.24,966.52,0,24.11,-8.33,5.74,0.11,4:7:31,34.203266N,-112.955299W,1019.00,10.16,16
995632,26.24,966.34,0,24.11,-10.20,4.89,1.30,4:7:32,34.203236N,-112.955338W,1018.60,10.64,16
996633,26.23,966.15,0,24.09,-6.74,4.85,0.47,4:7:33,34.203205N,-112.955376W,1018.30,11.21,16
997634,26.22,966.06,0,24.07,-8.47,3.00,1.54,4:7:34,34.203171N,-112.955414W,1018.30,12.19,16
998635,26.22,965.97,0,24.11,-9.63,6.16,1.87,4:7:35,34.203133N,-112.955460W,1017.90,13.29,16
999636,26.22,965.88,0,24.07,-8.90,5.07,0.51,4:7:36,34.203083N,-112.955498W,1017.50,13.49,16
1000637,26.22,965.88,0,24.07,-8.56,4.64,1.82,4:7:37,34.203037N,-112.955536W,1016.80,13.42,16
1001638,26.22,965.60,0,24.08,-8.46,4.65,-0.05,4:7:38,34.202991N,-112.955574W,1016.10,13.35,16
1002639,26.22,965.51,0,24.11,-9.03,5.32,1.53,4:7:39,34.202946N,-112.955597W,1015.30,13.35,16
1003640,26.23,965.42,0,24.10,-7.16,3.27,0.61,4:7:40,34.202900N,-112.955635W,1014.80,13.29,16
1004641,26.23,965.15,0,24.08,-7.02,3.62,2.01,4:7:41,34.202854N,-112.955673W,1014.20,13.32,16
1005642,26.23,964.96,0,24.13,-7.02,4.07,0.61,4:7:42,34.202812N,-112.955711W,1014.00,13.13,16
1006643,26.22,964.87,0,24.11,-7.73,4.68,0.67,4:7:43,34.202774N,-112.955765W,1013.90,12.47,16
1007644,26.22,964.69,0,24.12,-8.67,4.71,2.43,4:7:44,34.202740N,-112.955803W,1013.40,12.76,16
1008645,26.22,964.51,0,24.11,-7.79,5.35,2.29,4:7:45,34.202702N,-112.955841W,1013.00,12.73,16
1009646,26.22,964.51,0,24.07,-8.36,3.98,3.49,4:7:46,34.202660N,-112.955879W,1012.60,12.66,16
1010647,26.22,964.42,0,24.09,-9.51,4.70,2.01,4:7:47,34.202621N,-112.955917W,1012.50,12.34,16
1011648,26.22,964.32,0,24.10,-7.16,4.41,-1.45,4:7:48,34.202587N,-112.955956W,1011.80,11.88,16
1012649,26.22,964.14,0,24.11,-7.04,4.33,1.25,4:7:49,34.202549N,-112.955994W,1011.70,11.51,16
1013650,26.22,964.05,0,24.17,-8.39,3.20,2.70,4:7:50,34.202507N,-112.956032W,1011.20,12.26,17
1014651,26.21,963.78,0,24.07,-9.66,6.47,2.31,4:7:51,34.202469N,-112.956070W,1010.80,11.94,17
1015652,26.20,963.68,0,24.07,-9.27,4.80,1.28,4:7:52,34.202431N,-112.956093W,1010.10,11.68,17
1016653,26.20,963.50,0,24.14,-9.42,6.49,0.99,4:7:53,34.202389N,-112.956131W,1009.50,12.45,16
1017654,26.19,963.41,0,24.12,-9.14,4.58,0.75,4:7:54,34.202354N,-112.956161W,1009.50,12.41,17
1018655,26.19,963.32,0,24.08,-8.35,3.95,0.52,4:7:55,34.202312N,-112.956200W,1009.40,12.10,17
1019656,26.19,963.23,0,24.09,-9.28,3.62,1.71,4:7:56,34.202274N,-112.956238W,1009.30,12.02,17
1020657,26.19,963.14,0,24.11,-9.23,4.08,1.38,4:7:57,34.202232N,-112.956276W,1009.10,12.38,17
1021658,26.19,963.14,0,24.14,-8.65,3.95,1.17,4:7:58,34.202190N,-112.956314W,1008.80,12.85,17
1022659,26.18,963.04,0,24.16,-8.76,4.44,1.89,4:7:59,34.202152N,-112.956352W,1008.80,13.97,17
1023660,26.18,962.95,0,24.14,-9.01,3.68,2.46,4:8:0,34.202110N,-112.956390W,1008.90,14.51,17
1024661,26.18,962.86,0,24.12,-7.83,5.69,1.70,4:8:1,34.202065N,-112.956444W,1009.20,14.47,17
1025662,26.18,962.77,0,24.12,-7.29,2.73,2.06,4:8:2,34.202019N,-112.956490W,1009.10,14.27,17
1026663,26.18,962.68,0,24.14,-8.47,4.68,1.17,4:8:3,34.201981N,-112.956528W,1008.80,12.22,17
1027664,26.18,962.50,0,24.13,-8.71,2.46,3.46,4:8:4,34.201942N,-112.956581W,1008.60,12.19,17
1028665,26.19,962.31,0,24.13,-9.04,4.38,0.78,4:8:5,34.201908N,-112.956619W,1008.40,12.24,17
1029666,26.19,962.22,0,24.14,-10.07,2.95,7.64,4:8:6,34.201870N,-112.956650W,1007.90,12.65,17
1030667,26.19,961.95,0,24.13,-8.46,3.54,2.19,4:8:7,34.201832N,-112.956688W,1007.60,11.82,17
1031668,26.18,961.77,0,24.11,-10.29,4.61,3.23,4:8:8,34.201794N,-112.956726W,1007.20,11.74,17
1032669,26.18,961.58,0,24.12,-8.82,3.20,3.45,4:8:9,34.201752N,-112.956749W,1006.50,12.25,17
1033670,26.19,961.49,0,24.19,-8.87,4.51,1.97,4:8:10,34.201714N,-112.956787W,1006.30,11.16,16
1034671,26.19,961.31,0,24.08,-9.11,5.73,0.47,4:8:11,34.201675N,-112.956810W,1006.00,12.78,17
1035672,26.18,961.22,0,24.13,-7.01,4.95,-1.23,4:8:12,34.201633N,-112.956848W,1005.70,13.55,17
1036673,26.17,961.03,0,24.13,-8.66,4.92,4.32,4:8:13,34.201584N,-112.956886W,1005.80,13.47,17
1037674,26.16,960.94,0,24.16,-9.07,4.73,2.65,4:8:14,34.201538N,-112.956924W,1005.50,12.89,17
1038675,26.16,960.94,0,24.16,-12.16,4.71,5.11,4:8:15,34.201496N,-112.956955W,1005.30,12.00,17
1039676,26.15,960.85,0,24.20,-7.84,3.50,0.21,4:8:16,34.201447N,-112.956978W,1004.90,11.44,17
1040677,26.15,960.76,0,24.21,-8.86,2.76,1.90,4:8:17,34.201408N,-112.957008W,1004.70,11.36,17
1041678,26.15,960.67,0,24.14,-8.91,3.46,1.89,4:8:18,34.201366N,-112.957031W,1004.50,12.05,16
1042679,26.15,960.58,0,24.14,-9.14,5.12,0.78,4:8:19,34.201317N,-112.957069W,1004.10,13.77,16
1043680,26.15,960.67,0,24.15,-8.83,4.29,0.70,4:8:20,34.201271N,-112.957092W,1003.90,14.70,16
1044681,26.15,960.49,0,24.09,-7.50,4.52,-1.30,4:8:21,34.201221N,-112.957130W,1003.60,14.77,16
1045682,26.15,960.39,0,24.17,-8.54,4.21,1.25,4:8:22,34.201180N,-112.957184W,1003.50,14.69,16
1046683,26.16,960.21,0,24.14,-9.28,5.19,1.47,4:8:23,34.201130N,-112.957237W,1003.50,15.00,16
1047684,26.16,959.94,0,24.14,-8.82,4.65,1.48,4:8:24,34.201084N,-112.957283W,1003.40,15.79,16
1048685,26.16,959.75,0,24.11,-8.40,6.82,1.26,4:8:25,34.201042N,-112.957336W,1003.30,15.18,16
1049686,26.15,959.66,0,24.17,-7.18,4.46,1.01,4:8:26,34.201000N,-112.957405W,1003.30,14.99,16
1050687,26.15,959.57,0,24.20,-9.49,5.03,2.10,4:8:27,34.200958N,-112.957451W,1003.30,14.94,16
1051688,26.15,959.39,0,24.21,-9.55,5.79,2.99,4:8:28,34.200920N,-112.957504W,1003.30,13.86,16
1052689,26.14,959.21,0,24.16,-3.89,2.37,1.40,4:8:29,34.200874N,-112.957542W,1003.30,13.65,17
1053690,26.14,958.93,0,24.14,-11.08,4.91,0.37,4:8:30,34.200829N,-112.957565W,1003.40,13.16,17
1054691,26.14,958.75,0,24.11,-7.56,5.08,0.32,4:8:31,34.200783N,-112.957581W,1004.10,13.43,17
1055692,26.14,958.57,0,24.09,-3.73,2.37,-0.87,4:8:32,34.200729N,-112.957603W,1004.20,14.07,18
1056693,26.14,958.48,0,24.12,-8.42,5.91,0.04,4:8:33,34.200672N,-112.957619W,1004.40,14.79,18
1057694,26.14,958.20,0,24.13,-9.06,6.03,1.05,4:8:34,34.200619N,-112.957634W,1004.70,14.74,18
1058695,26.14,958.11,0,24.12,-8.64,6.13,0.46,4:8:35,34.200565N,-112.957672W,1004.60,14.70,18
1059696,26.14,958.02,0,24.12,-8.70,4.71,1.25,4:8:36,34.200512N,-112.957710W,1003.80,14.99,18
1060697,26.14,957.84,0,24.14,-8.56,5.17,1.21,4:8:37,34.200462N,-112.957748W,1003.40,15.29,18
1061698,26.14,957.65,0,24.15,-8.59,6.66,1.45,4:8:38,34.200409N,-112.957787W,1003.10,15.30,18
1062699,26.14,957.38,0,24.16,-6.92,5.39,0.95,4:8:39,34.200359N,-112.957825W,1002.80,14.61,18
1063700,26.14,957.10,0,24.11,-7.21,5.67,1.88,4:8:40,34.200310N,-112.957848W,1002.70,12.10,18
1064701,26.14,956.92,0,24.16,-8.07,4.72,1.24,4:8:41,34.200275N,-112.957878W,1002.10,9.30,18
1065702,26.14,956.65,0,24.15,-8.05,4.76,0.68,4:8:42,34.200249N,-112.957901W,1001.60,6.18,18
1066703,26.14,956.37,0,24.09,-8.12,5.27,1.17,4:8:43,34.200230N,-112.957901W,1001.50,3.71,18
1067704,26.15,956.19,0,24.12,-8.53,4.63,1.07,4:8:44,34.200222N,-112.957916W,1001.50,2.43,18
1068705,26.15,956.10,0,24.20,-8.46,5.00,1.07,4:8:45,34.200214N,-112.957916W,1001.60,1.67,18
1069706,26.15,956.01,0,24.18,-7.98,4.97,1.08,4:8:46,34.200211N,-112.957916W,1001.70,1.36,18
1070707,26.15,955.92,0,24.17,-8.46,4.53,1.08,4:8:47,34.200207N,-112.957924W,1001.70,0.82,18
1071708,26.15,955.83,0,24.14,-8.48,4.60,0.96,4:8:48,34.200203N,-112.957924W,1001.80,0.09,18
1072709,26.16,955.83,0,24.14,-8.73,4.56,1.12,4:8:49,34.200203N,-112.957924W,1001.80,0.02,18
1073710,26.16,955.83,0,24.20,-8.56,4.56,1.08,4:8:50,34.200203N,-112.957924W,1001.80,0.01,18
1074711,26.16,955.73,0,24.18,-8.90,3.86,0.89,4:8:51,34.200203N,-112.957924W,1001.80,0.03,18
1075712,26.16,955.64,0,24.21,-10.19,2.97,1.28,4:8:52,34.200203N,-112.957924W,1001.80,0.03,18
1076713,26.17,955.73,0,24.20,-8.18,2.29,1.69,4:8:53,34.200203N,-112.957924W,1001.80,1.30,18
1077714,26.17,955.83,0,24.12,-9.41,3.26,0.76,4:8:54,34.200191N,-112.957924W,1001.80,4.48,18
1078715,26.17,955.83,0,24.16,-10.87,4.47,1.92,4:8:55,34.200169N,-112.957939W,1001.80,7.61,18
1079716,26.18,955.92,0,24.20,-7.32,2.38,1.70,4:8:56,34.200142N,-112.957962W,1001.80,9.16,18
1080717,26.18,955.83,0,24.14,-8.83,6.30,0.49,4:8:57,34.200104N,-112.957993W,1001.70,10.15,18
1081718,26.18,955.92,0,24.14,-7.28,3.66,0.29,4:8:58,34.200066N,-112.958015W,1001.60,11.03,18
1082719,26.18,955.83,0,24.10,-9.42,3.95,0.34,4:8:59,34.200027N,-112.958038W,1001.40,11.00,18
1083720,26.18,955.83,0,24.17,-4.01,2.96,-0.93,4:9:0,34.199993N,-112.958069W,1001.30,10.92,18
1084721,26.18,955.83,0,24.20,-9.94,4.18,2.46,4:9:1,34.199963N,-112.958107W,1001.20,9.66,18
1085722,26.18,955.73,0,24.14,-8.85,5.02,0.64,4:9:2,34.199936N,-112.958130W,1001.30,9.88,18
1086723,26.18,955.73,0,24.14,-7.69,2.48,1.60,4:9:3,34.199905N,-112.958160W,1001.30,9.20,18
1087724,26.18,955.64,0,24.20,-6.57,4.22,3.86,4:9:4,34.199871N,-112.958199W,1001.10,9.61,18
1088725,26.18,955.46,0,24.18,-9.41,3.88,2.73,4:9:5,34.199841N,-112.958221W,1001.00,10.13,18
1089726,26.17,955.28,0,24.16,-9.80,2.97,3.21,4:9:6,34.199806N,-112.958244W,1001.00,9.85,18
1090727,26.17,955.10,0,24.15,-7.98,8.19,1.77,4:9:7,34.199772N,-112.958275W,1001.00,10.17,18
1091728,26.18,955.00,0,24.13,-8.02,2.39,0.82,4:9:8,34.199738N,-112.958313W,1001.10,10.22,18
1092729,26.18,954.91,0,24.14,-9.51,4.51,0.36,4:9:9,34.199703N,-112.958336W,1001.00,10.68,18
1093730,26.18,954.55,0,24.16,-8.91,7.01,2.76,4:9:10,34.199669N,-112.958359W,1000.80,10.47,18
1094731,26.18,954.27,0,24.15,-5.91,2.27,0.37,4:9:11,34.199631N,-112.958389W,1000.50,9.93,18
1095732,26.18,954.09,0,24.15,-8.46,5.45,-0.94,4:9:12,34.199600N,-112.958412W,1000.10,9.52,18
1096733,26.19,953.82,0,24.14,-8.79,3.90,1.47,4:9:13,34.199570N,-112.958435W,999.70,9.22,18
1097734,26.19,953.63,0,24.15,-9.48,4.42,0.57,4:9:14,34.199539N,-112.958466W,999.50,9.16,18
1098735,26.19,953.36,0,24.15,-8.19,4.13,-0.13,4:9:15,34.199509N,-112.958488W,999.40,9.38,18
1099736,26.19,953.27,0,24.18,-8.95,4.03,0.77,4:9:16,34.199478N,-112.958527W,999.10,9.93,18
1100737,26.19,953.18,0,24.16,-8.02,3.38,2.37,4:9:17,34.199451N,-112.958557W,998.90,9.88,18
1101738,26.19,953.09,0,24.13,-9.45,4.73,1.39,4:9:18,34.199425N,-112.958595W,998.60,10.37,17
1102739,26.20,952.90,0,24.14,-9.59,4.91,1.05,4:9:19,34.199398N,-112.958618W,998.50,10.41,17
1103740,26.20,952.63,0,24.16,-11.62,6.37,0.56,4:9:20,34.199371N,-112.958656W,998.40,10.95,18
1104741,26.20,952.54,0,24.18,-8.75,4.63,0.75,4:9:21,34.199348N,-112.958710W,998.30,11.56,18
1105742,26.20,952.26,0,24.15,-9.68,5.97,1.04,4:9:22,34.199318N,-112.958748W,998.30,11.33,18
1106743,26.20,952.08,0,24.15,-8.51,5.11,1.73,4:9:23,34.199291N,-112.958786W,998.40,11.50,18
1107744,26.20,951.90,0,24.14,-8.60,4.77,0.22,4:9:24,34.199265N,-112.958824W,998.40,9.76,18
1108745,26.20,951.90,0,24.13,-7.79,4.54,-0.28,4:9:25,34.199238N,-112.958862W,998.30,9.14,18
1109746,26.20,951.72,0,24.14,-3.93,2.21,0.46,4:9:26,34.199211N,-112.958900W,998.10,9.33,18
1110747,26.20,951.53,0,24.21,-8.62,4.18,1.45,4:9:27,34.199192N,-112.958939W,998.30,8.53,18
1111748,26.20,951.35,0,24.12,-7.50,4.50,0.71,4:9:28,34.199173N,-112.958961W,998.30,8.78,18
1112749,26.20,951.17,0,24.14,-10.11,7.48,0.31,4:9:29,34.199154N,-112.958992W,998.00,9.60,18
1113750,26.20,950.99,0,24.19,-6.70,4.22,2.71,4:9:30,34.199123N,-112.959030W,997.70,9.94,18
1114751,26.20,950.80,0,24.20,-9.36,4.26,1.84,4:9:31,34.199097N,-112.959068W,997.50,9.51,18
1115752,26.19,950.62,0,24.17,-9.20,4.09,0.81,4:9:32,34.199074N,-112.959091W,997.40,10.14,18
1116753,26.19,950.44,0,24.12,-8.08,4.47,0.45,4:9:33,34.199043N,-112.959129W,997.20,9.30,18
1117754,26.19,950.35,0,24.18,-8.81,4.49,2.35,4:9:34,34.199013N,-112.959167W,997.10,10.85,18
1118755,26.19,950.26,0,24.13,-10.92,6.71,1.31,4:9:35,34.198982N,-112.959221W,996.90,11.77,18
1119756,26.18,950.07,0,24.20,-6.42,2.94,3.72,4:9:36,34.198952N,-112.959259W,996.60,12.04,18
1120757,26.17,949.98,0,24.16,-6.38,3.46,-0.40,4:9:37,34.198917N,-112.959312W,996.20,11.61,18
1121758,26.15,949.71,0,24.07,-9.05,5.49,2.74,4:9:38,34.198891N,-112.959351W,995.70,11.16,18
1122759,26.14,949.52,0,24.14,-8.74,3.36,3.67,4:9:39,34.198868N,-112.959389W,995.30,10.13,18
1123760,26.13,949.34,0,24.13,-6.89,3.73,3.24,4:9:40,34.198841N,-112.959427W,994.60,9.24,18
1124761,26.12,949.07,0,24.20,-7.17,4.16,1.67,4:9:41,34.198822N,-112.959450W,994.60,8.59,18
1125762,26.12,948.89,0,24.20,-6.59,4.80,-0.36,4:9:42,34.198795N,-112.959503W,994.00,9.08,18
1126763,26.12,948.79,0,24.18,-9.33,4.61,1.34,4:9:43,34.198772N,-112.959541W,993.40,8.84,18
1127764,26.11,948.52,0,24.15,-7.72,3.22,1.47,4:9:44,34.198753N,-112.959579W,993.20,9.02,18
1128765,26.10,948.43,0,24.14,-9.38,4.94,1.91,4:9:45,34.198738N,-112.959602W,993.30,8.38,18
1129766,26.09,948.43,0,24.17,-9.28,4.24,1.19,4:9:46,34.198723N,-112.959641W,992.90,8.39,18
1130767,26.09,948.25,0,24.17,-9.24,3.65,1.60,4:9:47,34.198711N,-112.959679W,992.50,7.75,18
1131768,26.08,948.16,0,24.16,-8.60,3.03,2.06,4:9:48,34.198700N,-112.959717W,992.00,7.78,18
1132769,26.08,948.06,0,24.20,-10.15,5.02,1.47,4:9:49,34.198692N,-112.959755W,991.80,7.84,18
1133770,26.08,948.06,0,24.15,-8.84,2.76,1.07,4:9:50,34.198685N,-112.959785W,991.80,7.86,18
1134771,26.08,947.88,0,24.20,-9.82,4.73,1.26,4:9:51,34.198681N,-112.959824W,991.70,8.76,18
1135772,26.08,947.88,0,24.16,-9.17,2.94,1.05,4:9:52,34.198677N,-112.959862W,991.80,9.16,18
1136773,26.08,947.97,0,24.18,-8.95,3.30,1.88,4:9:53,34.198669N,-112.959908W,991.60,9.81,18
1137774,26.08,947.97,0,24.21,-9.51,3.09,2.24,4:9:54,34.198650N,-112.959961W,991.50,9.88,18
1138775,26.08,947.97,0,24.20,-8.03,4.07,2.08,4:9:55,34.198635N,-112.959999W,992.20,11.10,18
1139776,26.07,948.06,0,24.21,-8.88,4.67,1.39,4:9:56,34.198612N,-112.960052W,992.10,12.19,18
1140777,26.07,948.06,0,24.17,-9.07,4.45,1.14,4:9:57,34.198586N,-112.960106W,992.30,12.22,18
1141778,26.06,947.97,0,24.16,-8.65,3.90,2.30,4:9:58,34.198559N,-112.960152W,992.60,11.59,18
1142779,26.06,947.97,0,24.13,-7.53,4.22,1.39,4:9:59,34.198540N,-112.960205W,993.10,10.82,18
1143780,26.06,947.97,0,24.14,-8.10,4.47,2.57,4:10:0,34.198517N,-112.960243W,993.40,10.20,18
1144781,26.06,947.88,0,24.13,-7.97,3.46,0.92,4:10:1,34.198494N,-112.960281W,993.40,9.70,18
1145782,26.06,947.79,0,24.13,-8.80,4.86,1.23,4:10:2,34.198471N,-112.960320W,993.20,9.20,18
1146783,26.06,947.70,0,24.19,-8.84,4.57,1.93,4:10:3,34.198456N,-112.960358W,993.60,9.23,18
1147784,26.06,947.52,0,24.14,-8.70,4.87,0.93,4:10:4,34.198437N,-112.960411W,993.30,9.93,18
1148785,26.06,947.43,0,24.16,-8.73,5.03,2.22,4:10:5,34.198421N,-112.960464W,993.00,9.65,18
1149786,26.05,947.43,0,24.15,-7.83,1.90,2.14,4:10:6,34.198414N,-112.960503W,992.60,9.68,18
1150787,26.04,947.43,0,24.12,-6.97,3.11,1.50,4:10:7,34.198402N,-112.960548W,992.20,9.68,18
1151788,26.04,947.24,0,24.15,-8.66,4.17,1.08,4:10:8,34.198395N,-112.960587W,991.70,9.67,18
1152789,26.03,947.24,0,24.14,-8.16,3.77,2.08,4:10:9,34.198383N,-112.960640W,991.80,9.70,18
1153790,26.03,947.15,0,24.14,-8.48,3.56,1.73,4:10:10,34.198360N,-112.960678W,991.60,10.04,18
1154791,26.02,946.97,0,24.10,-8.70,2.67,3.23,4:10:11,34.198338N,-112.960716W,991.40,9.51,18
1155792,26.02,946.97,0,24.13,-8.66,4.50,1.65,4:10:12,34.198315N,-112.960754W,991.30,9.97,18
1156793,26.01,946.88,0,24.13,-9.57,3.63,1.42,4:10:13,34.198284N,-112.960793W,991.20,10.58,18
1157794,26.00,946.88,0,24.16,-9.67,4.21,2.05,4:10:14,34.198257N,-112.960846W,991.10,10.53,18
1158795,26.00,946.88,0,24.18,-8.08,3.69,2.04,4:10:15,34.198238N,-112.960884W,991.70,10.59,18
1159796,25.99,946.97,0,24.16,-10.30,5.26,0.44,4:10:16,34.198212N,-112.960937W,992.20,10.98,18
1160797,25.99,946.97,0,24.12,-9.00,5.23,2.11,4:10:17,34.198185N,-112.960976W,992.50,11.05,18
1161798,25.98,947.06,0,24.14,-7.82,4.49,0.82,4:10:18,34.198158N,-112.961014W,992.90,10.06,18
1162799,25.97,946.88,0,24.14,-10.37,6.84,-0.41,4:10:19,34.198132N,-112.961052W,992.80,9.20,18
1163800,25.97,946.69,0,24.19,-7.62,5.60,0.56,4:10:20,34.198109N,-112.961075W,992.80,9.10,18
1164801,25.97,946.60,0,24.19,-8.91,5.02,2.49,4:10:21,34.198078N,-112.961113W,992.80,8.36,18
1165802,25.96,946.51,0,24.16,-9.30,5.75,0.00,4:10:22,34.198059N,-112.961128W,992.50,6.56,18
1166803,25.96,946.42,0,24.09,-9.64,3.99,1.45,4:10:23,34.198040N,-112.961136W,992.20,5.17,18
1167804,25.96,946.33,0,24.09,-8.46,5.44,-0.38,4:10:24,34.198021N,-112.961166W,991.90,4.91,18
1168805,25.97,946.24,0,24.17,-6.81,3.84,0.18,4:10:25,34.198002N,-112.961189W,991.60,5.69,18
1169806,25.96,946.24,0,24.15,-9.06,3.61,1.04,4:10:26,34.197987N,-112.961189W,991.60,5.44,18
1170807,25.96,946.15,0,24.14,-9.12,5.71,-0.01,4:10:27,34.197968N,-112.961189W,991.40,5.42,18
1171808,25.95,946.15,0,24.11,-5.99,2.84,-1.58,4:10:28,34.197941N,-112.961205W,990.90,5.73,18
1172809,25.95,945.97,0,24.16,-8.21,5.23,0.28,4:10:29,34.197914N,-112.961220W,990.40,6.19,18
1173810,25.94,945.87,0,24.18,-8.41,4.48,1.07,4:10:30,34.197884N,-112.961227W,989.90,6.40,18
1174811,25.94,945.87,0,24.15,-8.74,3.89,1.72,4:10:31,34.197861N,-112.961227W,989.20,7.12,18
1175812,25.94,945.87,0,24.14,-8.83,4.15,2.29,4:10:32,34.197834N,-112.961243W,988.70,7.68,18
1176813,25.93,945.97,0,24.14,-8.68,5.14,1.21,4:10:33,34.197803N,-112.961243W,988.60,8.90,18
1177814,25.92,945.97,0,24.15,-8.09,4.54,1.20,4:10:34,34.197765N,-112.961243W,988.50,9.83,18
1178815,25.90,946.06,0,24.17,-9.14,4.37,1.78,4:10:35,34.197727N,-112.961243W,988.50,10.19,18
1179816,25.90,945.97,0,24.12,-8.22,4.88,1.61,4:10:36,34.197689N,-112.961243W,988.40,10.16,18
1180817,25.90,945.78,0,24.15,-7.54,4.04,0.98,4:10:37,34.197651N,-112.961258W,988.40,9.88,18
1181818,25.90,945.69,0,24.17,-8.14,4.75,1.08,4:10:38,34.197609N,-112.961258W,988.40,10.17,18
1182819,25.90,945.60,0,24.21,-8.00,4.40,1.75,4:10:39,34.197567N,-112.961266W,988.40,10.24,18
1183820,25.90,945.42,0,24.20,-9.21,5.24,1.43,4:10:40,34.197529N,-112.961281W,988.90,9.96,18
1184821,25.90,945.33,0,24.13,-9.27,4.41,1.68,4:10:41,34.197491N,-112.961304W,988.70,10.15,18
1185822,25.90,945.14,0,24.14,-8.31,4.44,1.20,4:10:42,34.197456N,-112.961334W,988.90,9.94,18
1186823,25.88,944.96,0,24.13,-8.30,4.58,1.96,4:10:43,34.197426N,-112.961357W,988.60,9.94,18
1187824,25.87,944.78,0,24.20,-8.37,3.92,1.64,4:10:44,34.197392N,-112.961395W,988.40,9.88,18
1188826,25.86,944.69,0,24.14,-8.93,4.91,1.14,4:10:46,34.197338N,-112.961456W,988.80,9.82,18
1189826,25.85,944.50,0,24.17,-5.53,2.44,0.85,4:10:46,34.197338N,-112.961456W,988.80,9.37,18
1190827,25.85,944.41,0,24.18,-8.51,3.58,0.67,4:10:47,34.197315N,-112.961487W,988.80,8.71,18
1191828,25.84,944.23,0,24.14,-9.17,3.38,1.07,4:10:49,34.197273N,-112.961563W,988.60,8.74,18
1192829,25.84,944.32,0,24.17,-7.97,2.74,0.27,4:10:49,34.197273N,-112.961563W,988.60,8.81,18
1193830,25.84,944.23,0,24.16,-7.88,4.49,0.56,4:10:51,34.197227N,-112.961639W,988.70,8.77,18
1194831,25.83,944.32,0,24.15,-8.46,3.63,2.14,4:10:51,34.197227N,-112.961639W,988.70,9.22,18
1195832,25.82,944.32,0,24.14,-8.51,3.81,1.32,4:10:53,34.197182N,-112.961700W,989.00,9.27,18
1196833,25.81,944.32,0,24.14,-9.26,4.06,1.00,4:10:53,34.197182N,-112.961700W,989.00,10.03,18
1197834,25.80,944.32,0,24.14,-9.33,4.87,1.95,4:10:54,34.197151N,-112.961739W,989.00,10.59,18
1198835,25.79,944.05,0,24.13,-9.92,5.09,2.63,4:10:55,34.197124N,-112.961777W,989.30,10.88,18
1199836,25.77,944.14,0,24.14,-8.48,5.89,2.84,4:10:57,34.197063N,-112.961853W,989.90,10.81,18
1200837,25.76,943.96,0,24.16,-10.16,5.86,3.90,4:10:57,34.197063N,-112.961853W,989.90,11.31,18
