time_since_start,bme_temp,bme_alt,uv,ism_temp,acc_x,acc_y,acc_z,gps_time,latitude,longitude,gps_alt,speed,sats
9010170,17.72,23241.10,342,-10.17,-0.63,-0.05,10.06,1:1:40,34.053349N,-113.280472W,25664.70,19.85,15
9011171,18.21,23211.72,318,-10.22,-0.35,0.16,9.91,1:1:41,34.053429N,-113.280464W,25668.70,20.20,15
9012172,18.24,23192.23,352,-10.21,-0.12,-0.45,9.88,1:1:42,34.053513N,-113.280434W,25672.80,20.45,15
9013173,18.18,23182.52,387,-10.21,-0.65,-0.69,9.87,1:1:43,34.053589N,-113.280411W,25676.80,20.75,15
9014174,18.14,23540.75,418,-10.18,-0.26,-0.18,9.96,1:1:44,34.053669N,-113.280373W,25680.70,21.33,15
9015175,18.11,23584.79,413,-10.12,-0.22,-0.43,10.04,1:1:45,34.053749N,-113.280334W,25684.40,21.33,15
9016176,18.10,23831.08,382,-10.13,0.03,-0.29,10.07,1:1:46,34.053825N,-113.280281W,25687.90,20.66,15
9017177,18.11,23824.44,370,-10.14,-0.27,-0.46,10.15,1:1:47,34.053890N,-113.280228W,25691.30,19.45,15
9018178,18.12,23280.54,9,-10.14,-0.64,-0.21,10.20,1:1:48,34.053955N,-113.280182W,25694.70,18.88,15
9019179,18.22,23039.00,392,-10.11,-0.57,-0.04,10.29,1:1:49,34.054024N,-113.280144W,25698.10,18.80,15
9020180,18.23,22792.40,358,-10.08,-0.00,-0.20,10.21,1:1:50,34.054089N,-113.280090W,25701.60,18.76,15
9021181,18.72,22877.53,301,-10.09,-0.33,-0.84,10.13,1:1:51,34.054157N,-113.280052W,25705.20,19.12,15
9022182,18.61,22967.83,362,-10.08,-0.21,-0.26,9.89,1:1:52,34.054230N,-113.280014W,25709.00,19.89,15
9023183,18.52,23040.89,328,-10.11,0.09,-0.21,9.80,1:1:53,34.054302N,-113.279976W,25713.00,19.89,15
9024184,18.46,23086.38,351,-9.99,0.31,-0.31,10.00,1:1:54,34.054375N,-113.279938W,25716.90,19.51,15
9025185,18.39,23266.70,364,-10.08,-0.12,-0.52,10.20,1:1:55,34.054447N,-113.279900W,25720.60,19.11,15
9026186,18.33,23412.99,381,-10.02,-0.67,-0.19,10.22,1:1:56,34.054523N,-113.279884W,25724.10,19.45,15
9027187,18.30,23348.33,385,-10.05,-0.44,0.18,10.09,1:1:57,34.054600N,-113.279869W,25727.50,19.89,15
9028188,18.30,23400.80,400,-10.00,-0.32,0.11,10.20,1:1:58,34.054680N,-113.279861W,25731.10,20.12,15
9029189,18.31,22979.00,415,-10.06,-0.24,-0.14,10.30,1:1:59,34.054760N,-113.279846W,25734.80,20.32,15
9030190,18.37,22758.39,401,-10.01,-0.48,-0.23,10.23,1:2:0,34.054840N,-113.279831W,25738.60,20.53,15
9031191,18.88,22652.46,410,-9.97,-0.56,-0.54,10.03,1:2:1,34.054920N,-113.279808W,25742.60,20.23,15
9032192,19.27,22776.26,340,-10.02,-0.66,-0.30,9.80,1:2:2,34.055000N,-113.279770W,25746.80,19.27,15
9033193,19.15,22872.05,365,-10.04,-0.17,-0.31,9.81,1:2:3,34.055069N,-113.279747W,25751.00,18.55,15
9034194,19.01,22945.57,342,-10.01,0.10,-0.72,10.03,1:2:4,34.055138N,-113.279716W,25755.10,18.16,15
9035195,18.91,23005.17,351,-9.96,-0.31,-0.47,10.15,1:2:5,34.055202N,-113.279678W,25759.00,17.88,15
9036196,18.85,23046.55,360,-9.94,-0.38,-0.15,10.14,1:2:6,34.055264N,-113.279640W,25762.70,17.79,15
9037197,18.81,23076.87,376,-9.96,-0.50,0.07,10.13,1:2:7,34.055325N,-113.279587W,25766.40,18.35,15
9038198,18.80,23111.20,364,-9.95,-0.18,-0.32,10.12,1:2:8,34.055386N,-113.279541W,25770.10,19.10,15
9039199,18.79,23213.68,365,-9.90,-0.19,-0.04,10.20,1:2:9,34.055450N,-113.279488W,25774.00,19.06,15
9040200,18.78,23478.51,395,-9.96,-0.01,-0.25,10.18,1:2:10,34.055511N,-113.279434W,25777.90,18.46,15
9041201,18.76,23033.35,385,-9.90,-0.25,-0.06,10.09,1:2:11,34.055573N,-113.279388W,25781.90,18.23,15
9042202,19.12,23074.97,350,-9.92,0.12,-0.21,9.98,1:2:12,34.055634N,-113.279350W,25785.90,18.31,15
9043203,19.15,23103.55,318,-9.89,-0.35,-0.38,9.84,1:2:13,34.055698N,-113.279297W,25790.10,18.30,15
9044204,19.06,23157.34,321,-9.87,0.07,-0.18,9.77,1:2:14,34.055759N,-113.279243W,25794.20,18.30,15
9045205,19.00,23258.81,345,-9.84,-0.05,-0.66,9.82,1:2:15,34.055828N,-113.279205W,25798.30,19.10,15
9046206,18.90,23221.49,397,-9.89,-0.36,-0.33,9.93,1:2:16,34.055897N,-113.279152W,25802.10,20.21,15
9047207,18.85,23258.81,418,-9.88,-0.08,-0.13,10.05,1:2:17,34.055973N,-113.279114W,25805.60,20.74,15
9048208,18.83,23567.96,385,-9.89,-0.22,0.07,10.11,1:2:18,34.056049N,-113.279076W,25808.80,20.78,15
9049209,18.84,23754.13,395,-9.87,-0.58,-0.15,10.16,1:2:19,34.056129N,-113.279037W,25811.90,20.80,15
9050210,18.88,23889.06,366,-9.84,-0.55,-0.12,10.29,1:2:20,34.056206N,-113.278999W,25815.10,20.76,15
9051211,18.91,23961.39,371,-9.87,-0.28,-0.20,10.33,1:2:21,34.056278N,-113.278961W,25818.30,20.27,15
9052212,18.93,23839.96,366,-9.86,-0.20,-0.68,10.27,1:2:22,34.056347N,-113.278915W,25821.70,20.19,15
9053213,18.95,23911.54,375,-9.83,-0.40,-0.64,10.09,1:2:23,34.056419N,-113.278862W,25825.40,20.52,15
9054214,18.99,24081.30,392,-9.81,-0.30,-0.38,9.87,1:2:24,34.056488N,-113.278809W,25829.40,21.09,15
9055215,19.01,24151.89,365,-9.85,-0.41,0.13,9.76,1:2:25,34.056564N,-113.278755W,25833.40,21.09,15
9056216,19.05,23911.54,346,-9.82,-0.95,-0.63,9.94,1:2:26,34.056629N,-113.278709W,25837.50,20.71,15
9057217,19.08,23732.36,381,-9.84,-0.19,-0.65,10.25,1:2:27,34.056698N,-113.278641W,25841.40,20.69,15
9058218,19.13,23292.44,379,-9.81,-0.45,-0.48,10.24,1:2:28,34.056755N,-113.278580W,25845.00,20.78,15
9059219,19.67,23286.49,282,-9.81,0.29,-0.36,10.15,1:2:29,34.056808N,-113.278503W,25848.40,20.81,15
9060220,19.58,23264.73,366,-9.80,-0.43,0.08,10.17,1:2:30,34.056862N,-113.278412W,25852.00,20.79,15
9061221,19.52,22932.63,403,-9.82,-0.47,-0.03,10.38,1:2:31,34.056911N,-113.278336W,25855.80,21.60,15
9062222,19.77,23268.68,375,-9.83,-0.28,-0.13,10.28,1:2:32,34.056973N,-113.278259W,25859.70,22.12,15
9063223,19.67,23524.07,367,-9.81,-0.26,0.32,9.94,1:2:33,34.057034N,-113.278183W,25863.80,22.09,15
9064224,19.61,23676.22,394,-9.82,-0.55,0.21,9.82,1:2:34,34.057102N,-113.278107W,25868.10,22.10,15
9065225,19.57,23576.37,401,-9.80,-0.35,-0.05,9.64,1:2:35,34.057163N,-113.278030W,25872.50,22.40,15
9066226,19.54,23188.34,360,-9.80,-0.67,-0.17,9.65,1:2:36,34.057224N,-113.277939W,25876.80,22.48,15
9067227,19.83,23067.38,351,-9.80,-1.06,-0.29,9.94,1:2:37,34.057304N,-113.277863W,25880.60,22.06,15
9068228,20.16,23124.62,347,-9.81,-0.49,0.02,10.26,1:2:38,34.057369N,-113.277802W,25884.10,21.77,15
9069229,20.04,23139.99,385,-9.80,0.18,-0.31,10.24,1:2:39,34.057438N,-113.277733W,25887.30,22.13,15
9070230,20.12,22848.38,431,-9.80,0.18,-0.05,10.18,1:2:40,34.057510N,-113.277679W,25890.50,22.44,15
9071231,20.48,22543.55,445,-9.80,0.18,-0.31,10.26,1:2:41,34.057590N,-113.277634W,25893.60,22.08,15
9072232,20.44,23012.67,371,-9.80,-0.24,-0.32,10.38,1:2:42,34.057663N,-113.277565W,25897.40,21.58,15
9073233,20.28,23080.67,326,-9.80,-0.21,-0.47,10.38,1:2:43,34.057728N,-113.277504W,25901.30,21.36,15
9074234,20.15,23138.06,322,-9.79,-0.47,0.20,10.12,1:2:44,34.057789N,-113.277443W,25905.40,21.02,15
9075235,20.07,23170.88,350,-9.80,-0.63,0.18,9.98,1:2:45,34.057854N,-113.277374W,25909.70,20.37,15
9076236,20.01,23217.58,374,-9.80,-0.23,-0.45,9.77,1:2:46,34.057915N,-113.277328W,25914.20,19.60,15
9077237,19.95,23612.25,426,-9.81,-0.40,0.26,9.68,1:2:47,34.057976N,-113.277260W,25918.80,19.26,15
9078238,19.91,23101.64,430,-9.80,0.28,0.15,9.92,1:2:48,34.058033N,-113.277206W,25923.30,18.57,15
9079239,20.12,23046.55,401,-9.80,-0.14,-0.71,10.18,1:2:49,34.058086N,-113.277145W,25927.50,17.53,15
9080240,20.40,23069.28,351,-9.80,-0.44,0.07,10.26,1:2:50,34.058132N,-113.277084W,25931.20,16.83,15
9081241,20.51,22982.73,350,-9.80,-0.58,0.10,10.16,1:2:51,34.058170N,-113.277016W,25934.70,16.85,15
9082242,20.80,23033.35,319,-9.78,-0.56,-0.01,10.23,1:2:52,34.058201N,-113.276955W,25938.40,16.57,15
9083243,20.82,23107.38,338,-9.80,-0.66,-0.24,10.27,1:2:53,34.058231N,-113.276878W,25942.30,15.68,15
9084244,20.63,23155.41,370,-9.79,-0.10,-0.26,10.21,1:2:54,34.058266N,-113.276810W,25946.20,15.17,15
9085245,20.48,23099.73,396,-9.79,0.26,-0.34,9.94,1:2:55,34.058300N,-113.276764W,25950.40,15.38,15
9086246,20.70,23298.40,385,-9.80,-0.14,0.15,9.79,1:2:56,34.058338N,-113.276711W,25954.70,15.37,15
9087247,20.53,23286.49,389,-9.77,-0.15,-0.38,9.66,1:2:57,34.058372N,-113.276649W,25959.20,15.08,15
9088248,20.41,22977.14,9,-9.77,-0.69,-0.12,9.65,1:2:58,34.058414N,-113.276596W,25963.50,15.48,15
9089249,20.43,22984.60,382,-9.77,-0.90,-0.34,9.96,1:2:59,34.058453N,-113.276527W,25967.50,16.17,15
9090250,20.36,22951.13,347,-9.78,-0.47,-0.47,10.17,1:3:0,34.058495N,-113.276466W,25971.10,16.13,15
9091251,20.72,23050.33,390,-9.78,-0.77,-0.26,10.17,1:3:1,34.058540N,-113.276413W,25974.40,15.62,15
9092252,20.62,23433.37,431,-9.80,-0.56,0.10,10.15,1:3:2,34.058586N,-113.276367W,25977.50,15.25,15
9093253,20.54,23149.62,360,-9.75,-0.08,-0.16,10.31,1:3:3,34.058632N,-113.276314W,25980.80,15.20,15
9094254,20.98,23196.12,335,-9.77,-0.39,-0.13,10.36,1:3:4,34.058674N,-113.276260W,25984.30,14.84,15
9095255,20.83,23233.25,331,-9.71,-0.13,-0.20,10.34,1:3:5,34.058712N,-113.276215W,25987.80,14.41,15
9096256,20.71,23328.30,341,-9.76,-0.09,-0.65,10.19,1:3:6,34.058750N,-113.276161W,25991.70,14.61,15
9097257,20.59,23340.31,340,-9.71,-0.00,-0.44,10.03,1:3:7,34.058788N,-113.276108W,25995.80,15.15,15
9098258,20.46,23338.30,408,-9.74,-0.75,-0.11,9.84,1:3:8,34.058826N,-113.276047W,26000.20,14.71,15
9099259,20.38,23346.32,370,-9.74,-0.76,-0.33,9.86,1:3:9,34.058865N,-113.275993W,26004.60,13.62,15
9100260,20.34,23354.36,357,-9.69,-0.56,-0.58,9.94,1:3:10,34.058891N,-113.275940W,26008.90,12.43,15
9101261,20.33,23356.37,386,-9.70,-0.06,-0.15,9.99,1:3:11,34.058914N,-113.275894W,26013.10,11.59,15
9102262,20.34,23358.38,340,-9.66,-0.42,-0.22,10.02,1:3:12,34.058929N,-113.275841W,26017.00,11.02,15
9103263,20.42,23358.38,303,-9.71,-0.26,-0.10,10.08,1:3:13,34.058937N,-113.275803W,26020.80,10.83,15
9104264,20.42,23362.40,330,-9.68,-0.15,-0.11,10.19,1:3:14,34.058937N,-113.275749W,26024.40,11.04,15
9105265,20.44,23360.39,332,-9.65,-0.10,-0.09,10.23,1:3:15,34.058941N,-113.275688W,26028.10,11.08,15
9106266,20.45,23392.69,362,-9.70,-0.18,-0.08,10.23,1:3:16,34.058945N,-113.275635W,26031.80,10.46,15
9107267,20.45,23767.23,419,-9.67,-0.06,0.13,10.17,1:3:17,34.058945N,-113.275597W,26035.70,9.60,15
9108268,20.45,23712.86,390,-9.64,-0.24,0.22,10.09,1:3:18,34.058949N,-113.275543W,26039.70,9.28,15
9109269,20.46,23804.56,350,-9.64,-0.39,-0.20,9.92,1:3:19,34.058949N,-113.275505W,26043.90,9.24,15
9110270,20.47,23747.58,311,-9.57,-0.28,-0.40,9.76,1:3:20,34.058949N,-113.275467W,26048.10,9.15,15
9111271,20.49,23652.67,249,-9.64,0.10,-0.21,9.82,1:3:21,34.058949N,-113.275421W,26052.30,9.37,15
9112272,20.45,23597.44,357,-9.63,-0.22,0.02,10.04,1:3:22,34.058956N,-113.275368W,26056.30,10.15,15
9113273,20.46,23497.10,382,-9.66,-0.53,-0.59,10.08,1:3:23,34.058971N,-113.275330W,26060.00,11.22,15
9114274,20.46,23732.36,413,-9.59,0.32,-0.04,10.03,1:3:24,34.058994N,-113.275276W,26063.40,11.41,15
9115275,20.47,23665.50,387,-9.60,-0.73,0.00,10.02,1:3:25,34.059021N,-113.275223W,26066.80,11.42,15
9116276,20.49,23599.55,316,-9.60,-0.45,-0.58,10.20,1:3:26,34.059048N,-113.275185W,26070.20,11.37,15
9117277,20.53,23555.38,336,-9.52,-0.04,-0.49,10.34,1:3:27,34.059071N,-113.275139W,26073.60,11.38,15
9118278,20.56,23507.46,301,-9.52,-0.40,-0.26,10.29,1:3:28,34.059090N,-113.275085W,26077.10,11.10,15
9119279,20.60,23486.77,316,-9.59,-0.26,-0.01,10.16,1:3:29,34.059109N,-113.275032W,26080.70,11.59,15
9120280,20.62,23457.94,364,-9.51,-0.02,0.20,10.03,1:3:30,34.059124N,-113.274979W,26084.40,12.55,15
9121281,20.64,23443.60,390,-9.52,-0.43,-0.16,9.88,1:3:31,34.059143N,-113.274918W,26088.40,12.97,15
9122282,20.66,23433.37,389,-9.53,-0.98,-0.49,9.93,1:3:32,34.059162N,-113.274864W,26092.40,12.79,15
9123283,20.69,23433.37,372,-9.55,-0.82,-0.48,10.01,1:3:33,34.059177N,-113.274803W,26096.40,12.20,15
9124284,20.71,23431.33,385,-9.47,-0.09,-0.24,10.16,1:3:34,34.059189N,-113.274750W,26100.20,12.14,15
9125285,20.75,23248.96,382,-9.50,-0.77,-0.02,10.15,1:3:35,34.059196N,-113.274689W,26104.00,12.19,15
9126286,20.79,23128.45,325,-9.51,-0.50,-0.30,10.12,1:3:36,34.059204N,-113.274635W,26107.70,12.59,15
9127287,21.21,23209.77,318,-9.47,-0.07,-0.13,10.20,1:3:37,34.059204N,-113.274574W,26111.50,13.19,15
9128288,21.17,23025.82,391,-9.50,-0.58,-0.06,10.18,1:3:38,34.059208N,-113.274506W,26115.40,14.05,15
9129289,21.58,22853.84,375,-9.46,-0.29,-0.44,10.05,1:3:39,34.059212N,-113.274429W,26119.40,14.39,15
9130290,21.92,22988.33,328,-9.46,-0.46,-0.74,9.86,1:3:40,34.059223N,-113.274368W,26123.50,14.19,15
9131291,21.76,23103.55,332,-9.41,-0.26,-0.56,9.72,1:3:41,34.059238N,-113.274307W,26127.70,13.84,15
9132292,21.59,22912.35,382,-9.42,-0.71,-0.01,9.72,1:3:42,34.059254N,-113.274239W,26131.70,13.79,15
9133293,21.59,22857.47,346,-9.41,-0.77,-0.12,9.90,1:3:43,34.059273N,-113.274178W,26135.60,13.74,15
9134294,21.47,23007.04,372,-9.39,-0.16,-0.13,10.07,1:3:44,34.059299N,-113.274109W,26139.20,13.77,15
9135295,21.41,23092.10,369,-9.41,-0.06,-0.53,10.12,1:3:45,34.059326N,-113.274063W,26142.40,14.46,15
9136296,21.50,22792.40,431,-9.39,-0.29,-0.19,10.11,1:3:46,34.059357N,-113.273994W,26145.60,15.38,15
9137297,21.77,22557.25,428,-9.39,-0.26,-0.47,10.17,1:3:47,34.059395N,-113.273933W,26148.80,15.96,15
9138298,21.93,22380.27,438,-9.38,-0.08,-0.51,10.27,1:3:48,34.059429N,-113.273872W,26152.10,15.63,15
9139299,22.05,22846.57,369,-9.36,-0.21,-0.33,10.26,1:3:49,34.059467N,-113.273804W,26155.30,15.04,15
9140300,21.86,23012.67,345,-9.39,-0.11,-0.61,10.18,1:3:50,34.059494N,-113.273743W,26158.80,14.58,15
9141301,21.69,23126.53,350,-9.37,0.08,-0.38,10.04,1:3:51,34.059525N,-113.273689W,26162.40,14.38,15
9142302,21.55,23203.92,385,-9.30,-0.34,-0.40,9.85,1:3:52,34.059551N,-113.273628W,26166.30,14.33,15
9143303,21.47,23266.70,374,-9.33,-0.23,-0.54,9.82,1:3:53,34.059582N,-113.273560W,26170.20,14.72,15
9144304,21.43,23296.41,408,-9.34,-0.13,-0.44,9.94,1:3:54,34.059605N,-113.273499W,26173.90,15.37,15
9145305,21.48,22954.83,107,-9.33,-0.09,-0.52,10.15,1:3:55,34.059628N,-113.273430W,26177.50,15.60,15
9146306,21.85,23201.97,384,-9.32,-0.11,-0.30,10.19,1:3:56,34.059647N,-113.273354W,26180.80,15.60,15
9147307,21.74,23451.79,352,-9.33,-0.33,-0.48,10.10,1:3:57,34.059662N,-113.273277W,26184.10,15.61,15
9148308,21.67,23559.57,351,-9.31,-0.37,-0.67,10.17,1:3:58,34.059666N,-113.273201W,26187.50,15.58,15
9149309,21.64,23572.16,337,-9.30,-0.20,-0.39,10.26,1:3:59,34.059673N,-113.273125W,26191.00,15.26,15
9150310,21.57,23553.29,379,-9.32,-0.63,-0.20,10.24,1:4:0,34.059685N,-113.273064W,26194.60,15.06,15
9151311,21.49,23551.20,348,-9.31,-0.54,-0.26,10.07,1:4:1,34.059696N,-113.272987W,26198.30,15.26,15
9152312,21.45,23773.80,369,-9.30,-0.27,-0.09,9.94,1:4:2,34.059708N,-113.272911W,26202.20,15.63,15
9153313,21.43,23902.54,346,-9.30,-0.07,-0.31,9.82,1:4:3,34.059723N,-113.272842W,26206.20,15.85,15
9154314,21.42,23925.09,342,-9.30,-0.17,-0.33,9.82,1:4:4,34.059742N,-113.272766W,26210.30,15.86,15
9155315,21.43,23633.48,371,-9.31,-0.58,-0.60,10.00,1:4:5,34.059757N,-113.272690W,26214.10,15.88,15
9156316,21.44,23528.24,370,-9.31,-0.47,-0.18,10.09,1:4:6,34.059780N,-113.272614W,26217.70,16.15,15
9157317,21.45,23741.05,381,-9.29,-0.32,-0.07,10.10,1:4:7,34.059803N,-113.272552W,26221.10,16.36,15
9158318,21.49,23808.97,366,-9.30,-0.58,0.06,10.09,1:4:8,34.059834N,-113.272476W,26224.40,16.38,15
9159319,21.50,23728.02,454,-9.30,-0.25,-0.25,10.11,1:4:9,34.059864N,-113.272408W,26227.60,16.86,15
9160320,21.51,23515.76,358,-9.29,-0.24,-0.15,10.16,1:4:10,34.059895N,-113.272331W,26231.00,17.36,15
9161321,21.96,23515.76,366,-9.29,-0.43,-0.20,10.11,1:4:11,34.059925N,-113.272255W,26234.40,17.38,15
9162322,21.90,23509.53,336,-9.29,-0.25,-0.12,10.05,1:4:12,34.059948N,-113.272179W,26237.80,17.05,15
9163323,21.87,23540.75,351,-9.29,0.02,-0.47,10.02,1:4:13,34.059971N,-113.272102W,26241.30,16.79,15
9164324,21.84,23866.68,391,-9.28,-0.31,-0.31,10.01,1:4:14,34.059994N,-113.272026W,26244.90,16.51,15
9165325,21.81,24192.35,431,-9.29,-0.08,0.01,9.97,1:4:15,34.060017N,-113.271950W,26248.60,16.21,15
9166326,21.79,24041.77,430,-9.27,-0.08,-0.01,9.97,1:4:16,34.060032N,-113.271873W,26252.10,15.83,15
9167327,21.80,23513.68,390,-9.27,-0.16,-0.10,10.06,1:4:17,34.060051N,-113.271805W,26255.60,15.87,15
9168328,22.27,23153.48,15,-9.27,-0.34,-0.07,10.09,1:4:18,34.060062N,-113.271729W,26259.00,16.47,15
9169329,22.66,22852.02,9,-9.27,-0.25,-0.27,10.13,1:4:19,34.060074N,-113.271645W,26262.30,17.10,15
9170330,22.63,22792.40,387,-9.27,-0.44,-0.43,10.09,1:4:20,34.060078N,-113.271568W,26265.50,17.61,15
9171331,22.50,22914.19,382,-9.29,-0.50,-0.46,10.14,1:4:21,34.060081N,-113.271477W,26268.80,17.83,15
9172332,22.39,23190.29,382,-9.23,-0.27,-0.37,10.18,1:4:22,34.060085N,-113.271400W,26272.10,17.78,15
9173333,22.30,23553.29,366,-9.27,-0.22,0.05,10.15,1:4:23,34.060089N,-113.271309W,26275.40,17.45,15
9174334,22.25,23833.30,372,-9.22,-0.34,0.03,10.11,1:4:24,34.060101N,-113.271233W,26278.90,17.40,15
9175335,22.22,23797.95,401,-9.24,-0.45,-0.11,10.05,1:4:25,34.060104N,-113.271141W,26282.50,17.66,15
9176336,22.20,23320.30,9,-9.27,-0.29,-0.14,10.06,1:4:26,34.060116N,-113.271049W,26286.20,18.61,15
9177337,22.26,23035.23,364,-9.20,-0.25,-0.31,9.99,1:4:27,34.060127N,-113.270966W,26289.90,19.53,15
9178338,22.52,23111.20,318,-9.21,-0.52,-0.24,9.91,1:4:28,34.060139N,-113.270859W,26293.60,20.41,15
9179339,22.71,23225.41,327,-9.18,-0.37,0.02,9.88,1:4:29,34.060146N,-113.270775W,26297.20,21.12,15
9180340,22.62,23312.33,395,-9.23,-0.32,-0.16,9.88,1:4:30,34.060162N,-113.270653W,26300.70,21.68,15
9181341,22.54,23360.39,377,-9.23,-0.24,-0.48,9.98,1:4:31,34.060181N,-113.270554W,26304.00,22.11,15
9182342,22.49,23406.89,352,-9.20,-0.25,-0.37,10.08,1:4:32,34.060204N,-113.270454W,26307.20,22.54,15
9183343,22.45,23441.55,377,-9.16,-0.19,-0.25,10.10,1:4:33,34.060230N,-113.270348W,26310.00,23.08,15
9184344,22.44,23464.11,357,-9.14,-0.42,-0.32,10.10,1:4:34,34.060265N,-113.270218W,26313.00,23.55,15
9185345,22.44,23484.70,351,-9.15,-0.55,-0.26,10.18,1:4:35,34.060291N,-113.270119W,26315.90,23.61,15
9186346,22.45,23507.46,317,-9.15,-0.13,-0.23,10.22,1:4:36,34.060314N,-113.270020W,26319.30,23.60,15
9187347,22.47,23519.91,322,-9.16,-0.02,-0.38,10.25,1:4:37,34.060345N,-113.269913W,26322.20,23.53,15
9188348,22.48,23540.75,355,-9.17,-0.36,-0.35,10.22,1:4:38,34.060379N,-113.269798W,26325.50,23.45,15
9189349,22.48,23780.37,377,-9.15,-0.29,-0.10,10.19,1:4:39,34.060410N,-113.269699W,26329.50,23.37,15
9190350,22.46,23721.51,405,-9.13,-0.35,-0.14,10.13,1:4:40,34.060440N,-113.269577W,26333.30,23.35,15
9191351,22.46,23237.17,439,-9.14,-0.31,-0.22,9.97,1:4:41,34.060463N,-113.269493W,26337.20,23.76,15
9192352,22.53,23184.46,391,-9.08,-0.27,-0.49,9.90,1:4:42,34.060513N,-113.269379W,26340.80,23.46,15
9193353,22.92,23276.59,386,-9.15,-0.50,-0.30,9.87,1:4:43,34.060555N,-113.269272W,26344.30,22.80,15
9194354,22.85,23348.33,376,-9.15,-0.26,-0.10,9.89,1:4:44,34.060574N,-113.269173W,26347.80,21.86,15
9195355,22.80,23410.96,325,-9.11,-0.28,-0.04,9.89,1:4:45,34.060596N,-113.269066W,26351.30,21.16,15
9196356,22.78,23449.74,369,-9.11,-0.20,-0.32,9.94,1:4:46,34.060612N,-113.268982W,26354.40,20.61,15
9197357,22.78,23474.39,350,-9.07,-0.23,-0.36,9.97,1:4:47,34.060623N,-113.268875W,26357.50,20.35,15
9198358,22.79,23497.10,353,-9.07,-0.18,-0.11,10.08,1:4:48,34.060638N,-113.268776W,26360.50,20.64,15
9199359,22.90,23172.82,13,-9.09,-0.33,-0.18,10.16,1:4:49,34.060658N,-113.268684W,26363.30,21.42,15
9200360,23.38,22842.94,13,-9.08,-0.16,-0.33,10.21,1:4:50,34.060673N,-113.268585W,26366.20,22.08,15
9201361,23.41,22932.63,410,-9.12,-0.01,-0.39,10.28,1:4:51,34.060692N,-113.268471W,26369.10,22.48,15
9202362,23.29,23241.10,340,-9.03,-0.19,-0.46,10.28,1:4:52,34.060707N,-113.268349W,26371.80,22.70,15
9203363,23.21,23330.29,317,-9.06,-0.18,-0.28,10.31,1:4:53,34.060719N,-113.268250W,26375.80,22.77,15
9204364,23.13,23392.69,296,-9.03,-0.34,-0.35,10.25,1:4:54,34.060741N,-113.268135W,26379.70,23.02,15
9205365,23.08,23455.89,360,-9.04,-0.20,-0.33,10.11,1:4:55,34.060764N,-113.268028W,26383.10,23.75,15
9206366,23.06,23370.46,374,-9.05,-0.46,-0.20,9.94,1:4:56,34.060776N,-113.267914W,26387.20,24.92,15
9207367,23.06,23605.90,355,-9.01,-0.45,-0.21,9.85,1:4:57,34.060810N,-113.267792W,26391.10,26.61,15
9208368,23.05,23631.35,325,-9.02,-0.22,-0.09,9.95,1:4:58,34.060818N,-113.267662W,26395.90,28.19,15
9209369,23.05,23631.35,352,-9.01,-0.26,-0.27,10.13,1:4:59,34.060852N,-113.267517W,26399.70,29.59,15
9210370,23.04,23627.10,360,-9.02,-0.41,-0.15,10.18,1:5:0,34.060875N,-113.267365W,26403.00,30.57,15
9211371,23.07,23505.38,409,-9.01,-0.43,-0.37,10.21,1:5:1,34.060905N,-113.267227W,26406.80,30.90,15
9212372,23.45,23126.53,10,-9.03,-0.21,-0.37,10.21,1:5:2,34.060928N,-113.267082W,26410.20,30.36,15
9213373,23.79,23578.47,397,-9.00,-0.48,-0.27,10.15,1:5:3,34.060947N,-113.266945W,26413.80,29.72,15
9214374,23.66,23644.13,332,-8.98,-0.41,-0.50,10.07,1:5:4,34.060959N,-113.266815W,26418.50,29.26,15
9215375,23.54,23656.94,365,-8.98,-0.37,-0.25,10.00,1:5:5,34.060974N,-113.266663W,26422.50,28.81,15
9216376,23.45,23691.27,375,-8.95,-0.26,-0.04,9.92,1:5:6,34.060982N,-113.266525W,26426.50,28.56,15
9217377,23.33,23684.82,387,-8.99,-0.27,-0.12,9.94,1:5:7,34.060993N,-113.266380W,26430.70,28.14,15
9218378,23.26,23680.52,385,-8.96,-0.27,0.04,10.05,1:5:8,34.060993N,-113.266251W,26434.60,27.36,15
9219379,23.23,23697.74,345,-8.93,-0.21,-0.13,10.11,1:5:9,34.061001N,-113.266129W,26438.60,26.15,15
9220380,23.20,23738.88,348,-8.93,-0.33,-0.21,10.06,1:5:10,34.060993N,-113.266006W,26442.20,24.94,15
9221381,23.17,23902.54,365,-8.93,-0.60,-0.50,10.04,1:5:11,34.060982N,-113.265892W,26446.40,24.11,15
9222382,23.10,23633.48,10,-8.92,-0.45,-0.18,10.03,1:5:12,34.060974N,-113.265778W,26450.20,23.72,15
9223383,23.08,23540.75,389,-8.89,-0.22,-0.28,10.08,1:5:13,34.060963N,-113.265663W,26454.00,23.77,15
9224384,23.42,23565.86,348,-8.88,-0.46,-0.36,10.12,1:5:14,34.060963N,-113.265549W,26457.20,24.01,15
9225385,23.34,23595.33,370,-8.95,-0.25,-0.17,10.16,1:5:15,34.060944N,-113.265450W,26460.70,24.09,15
9226386,23.30,23654.81,361,-8.89,-0.15,-0.14,10.20,1:5:16,34.060936N,-113.265327W,26464.80,24.08,15
9227387,23.25,23736.71,348,-8.89,-0.30,-0.12,10.21,1:5:17,34.060917N,-113.265205W,26468.70,23.75,15
9228388,23.18,23940.93,357,-8.92,-0.36,-0.26,10.17,1:5:18,34.060898N,-113.265091W,26472.40,23.38,15
9229389,23.13,23778.18,262,-8.85,-0.42,-0.22,10.12,1:5:19,34.060886N,-113.264977W,26477.00,23.19,15
9230390,23.11,23462.05,356,-8.89,-0.27,-0.13,10.02,1:5:20,34.060863N,-113.264870W,26481.60,23.24,15
9231391,23.59,23486.77,319,-8.90,-0.22,-0.22,9.97,1:5:21,34.060867N,-113.264771W,26485.80,23.62,15
9232392,23.69,23530.32,333,-8.81,-0.28,-0.26,9.89,1:5:22,34.060856N,-113.264656W,26490.30,24.16,15
9233393,23.55,23574.26,319,-8.86,-0.23,-0.21,9.88,1:5:23,34.060837N,-113.264534W,26494.80,24.59,15
9234394,23.46,23605.90,364,-8.80,-0.25,-0.12,9.92,1:5:24,34.060837N,-113.264420W,26498.70,24.65,15
9235395,23.40,23648.40,385,-8.83,-0.27,-0.05,9.98,1:5:25,34.060825N,-113.264305W,26502.70,24.67,15
9236396,23.34,23835.52,408,-8.86,-0.29,-0.30,10.03,1:5:26,34.060822N,-113.264175W,26506.60,24.39,15
9237397,23.29,23396.75,387,-8.81,-0.28,-0.13,10.03,1:5:27,34.060814N,-113.264061W,26510.00,24.09,15
9238398,23.68,23163.14,385,-8.80,-0.28,-0.05,10.09,1:5:28,34.060822N,-113.263947W,26513.20,23.85,15
9239399,24.09,23018.30,400,-8.80,-0.23,-0.18,10.15,1:5:29,34.060814N,-113.263832W,26516.80,23.79,15
9240400,24.42,22993.94,375,-8.80,-0.31,-0.20,10.23,1:5:30,34.060806N,-113.263718W,26520.40,23.75,15
9241401,24.63,22841.13,414,-8.80,-0.44,-0.23,10.28,1:5:31,34.060799N,-113.263603W,26524.30,23.47,15
9242402,24.82,22619.37,462,-8.81,-0.20,-0.33,10.28,1:5:32,34.060783N,-113.263504W,26528.10,22.97,15
9243403,24.61,22680.49,424,-8.80,-0.18,-0.25,10.20,1:5:33,34.060783N,-113.263382W,26531.50,22.11,15
9244404,24.35,23080.67,411,-8.80,-0.25,-0.17,10.04,1:5:34,34.060772N,-113.263283W,26535.70,20.96,15
9245405,24.16,23484.70,434,-8.82,-0.35,-0.33,9.91,1:5:35,34.060753N,-113.263191W,26540.20,19.61,15
9246406,24.02,23866.68,394,-8.79,-0.28,-0.24,9.84,1:5:36,34.060738N,-113.263107W,26544.70,18.35,15
9247407,23.93,24111.76,421,-8.81,-0.21,-0.24,9.86,1:5:37,34.060711N,-113.263031W,26549.10,17.25,15
9248408,23.87,23773.80,399,-8.80,-0.37,-0.31,9.94,1:5:38,34.060688N,-113.262947W,26553.30,16.19,15
9249409,23.85,23360.39,406,-8.80,-0.40,-0.16,10.04,1:5:39,34.060665N,-113.262886W,26557.30,15.25,15
9250410,24.22,23159.27,395,-8.78,-0.19,-0.14,10.05,1:5:40,34.060646N,-113.262825W,26561.10,14.57,15
9251411,24.64,23126.53,370,-8.77,-0.14,-0.19,10.02,1:5:41,34.060623N,-113.262756W,26564.70,14.28,15
9252412,24.89,23239.14,386,-8.81,-0.29,-0.29,10.05,1:5:42,34.060604N,-113.262695W,26568.20,14.23,15
9253413,24.85,23360.39,340,-8.78,-0.41,-0.16,10.09,1:5:43,34.060581N,-113.262627W,26571.80,14.16,15
9254414,24.64,23433.37,374,-8.78,-0.35,-0.35,10.12,1:5:44,34.060562N,-113.262566W,26575.20,14.12,15
9255415,24.62,23394.72,345,-8.77,-0.30,-0.24,10.15,1:5:45,34.060539N,-113.262505W,26578.70,14.13,15
9256416,24.83,23390.67,357,-8.77,-0.33,-0.11,10.16,1:5:46,34.060516N,-113.262436W,26582.20,13.93,15
9257417,24.95,23404.86,357,-8.77,-0.35,-0.11,10.19,1:5:47,34.060490N,-113.262390W,26585.90,13.47,15
9258418,25.02,23390.67,353,-8.77,-0.16,-0.16,10.16,1:5:48,34.060467N,-113.262337W,26589.70,13.19,15
9259419,25.11,23449.74,375,-8.79,-0.12,-0.34,10.14,1:5:49,34.060444N,-113.262276W,26593.50,13.26,15
9260420,25.05,23526.15,348,-8.77,-0.26,-0.23,10.09,1:5:50,34.060421N,-113.262207W,26597.50,13.34,15
9261421,24.81,23582.68,371,-8.76,-0.47,-0.23,10.05,1:5:51,34.060398N,-113.262154W,26601.50,13.31,15
9262422,24.64,23618.61,369,-8.77,-0.40,-0.20,10.00,1:5:52,34.060375N,-113.262093W,26605.60,12.98,15
9263423,24.51,23646.27,328,-8.76,-0.29,-0.16,9.94,1:5:53,34.060352N,-113.262039W,26609.80,12.41,15
9264424,24.40,23669.79,311,-8.77,-0.02,-0.18,9.87,1:5:54,34.060329N,-113.261993W,26613.90,11.22,15
9265425,24.33,23693.43,331,-8.75,-0.11,-0.22,9.86,1:5:55,34.060303N,-113.261955W,26618.00,9.73,15
9266426,24.28,23710.69,352,-8.75,-0.36,-0.27,9.98,1:5:56,34.060287N,-113.261917W,26621.90,8.34,15
9267427,24.23,23723.68,345,-8.73,-0.49,-0.32,10.08,1:5:57,34.060268N,-113.261887W,26625.60,7.44,15
9268428,24.23,23732.36,379,-8.74,-0.29,-0.29,10.11,1:5:58,34.060253N,-113.261864W,26629.20,6.81,15
9269429,24.26,23745.41,386,-8.75,-0.26,-0.30,10.16,1:5:59,34.060238N,-113.261833W,26632.70,6.61,15
9270430,24.27,23534.49,387,-8.75,-0.30,-0.26,10.16,1:6:0,34.060223N,-113.261810W,26636.10,6.83,15
9271431,24.75,23182.52,13,-8.74,-0.33,-0.29,10.18,1:6:1,34.060200N,-113.261787W,26639.60,7.10,15
9272432,24.85,23280.54,386,-8.74,-0.50,-0.42,10.16,1:6:2,34.060181N,-113.261757W,26643.30,6.80,15
9273433,24.72,23593.22,381,-8.77,-0.36,-0.35,10.17,1:6:3,34.060165N,-113.261734W,26647.00,6.16,15
9274434,24.63,23934.14,376,-8.76,-0.21,-0.10,10.18,1:6:4,34.060150N,-113.261711W,26650.80,5.54,15
9275435,24.56,24088.32,369,-8.68,-0.37,-0.08,10.15,1:6:5,34.060139N,-113.261696W,26654.80,5.17,15
9276436,24.52,24185.19,380,-8.74,-0.38,-0.17,10.14,1:6:6,34.060123N,-113.261681W,26658.90,5.08,15
9277437,24.50,24247.66,374,-8.72,-0.39,-0.26,10.14,1:6:7,34.060112N,-113.261658W,26663.20,5.33,15
9278438,24.48,24147.15,346,-8.69,-0.36,-0.15,10.13,1:6:8,34.060101N,-113.261635W,26667.40,6.08,15
9279439,24.41,24076.63,325,-8.74,-0.18,-0.26,10.10,1:6:9,34.060081N,-113.261604W,26671.80,6.71,15
9280440,24.31,24027.89,321,-8.67,-0.01,-0.27,10.07,1:6:10,34.060066N,-113.261581W,26676.30,6.76,15
9281441,24.25,23972.79,298,-8.70,-0.09,-0.22,10.00,1:6:11,34.060055N,-113.261559W,26680.80,6.47,15
9282442,24.23,23929.61,371,-8.69,-0.37,-0.27,9.97,1:6:12,34.060043N,-113.261528W,26685.40,5.96,15
9283443,24.23,23893.55,362,-8.69,-0.27,-0.39,9.90,1:6:13,34.060040N,-113.261505W,26689.90,5.49,15
9284444,24.24,23868.91,367,-8.69,-0.22,-0.30,9.81,1:6:14,34.060036N,-113.261475W,26694.30,5.43,15
9285445,24.27,23853.30,357,-8.69,-0.21,-0.37,9.82,1:6:15,34.060036N,-113.261452W,26698.50,5.48,15
9286446,24.30,23837.74,304,-8.65,-0.29,-0.27,9.85,1:6:16,34.060040N,-113.261429W,26702.60,6.03,15
9287447,24.32,23833.30,309,-8.67,-0.20,-0.19,9.90,1:6:17,34.060040N,-113.261391W,26706.50,6.53,15
9288448,24.34,23846.62,332,-8.63,0.02,-0.30,9.94,1:6:18,34.060043N,-113.261360W,26710.10,6.81,15
9289449,24.36,23920.57,369,-8.61,-0.17,-0.29,10.04,1:6:19,34.060051N,-113.261322W,26713.60,6.87,15
9290450,24.34,24209.12,392,-8.60,-0.29,-0.21,10.11,1:6:20,34.060062N,-113.261299W,26716.90,6.92,15
9291451,24.32,23842.18,445,-8.59,-0.10,-0.17,10.18,1:6:21,34.060070N,-113.261261W,26720.00,6.89,15
9292452,24.35,23488.83,414,-8.62,-0.23,-0.19,10.23,1:6:22,34.060081N,-113.261238W,26723.10,6.87,15
9293453,24.86,23542.83,346,-8.59,-0.16,-0.30,10.27,1:6:23,34.060097N,-113.261208W,26726.30,6.85,15
9294454,24.96,23610.13,362,-8.55,-0.17,-0.25,10.27,1:6:24,34.060104N,-113.261169W,26729.60,7.07,15
9295455,24.86,23663.36,343,-8.64,-0.28,-0.17,10.23,1:6:25,34.060112N,-113.261131W,26733.10,7.41,15
9296456,24.79,23699.89,376,-8.54,-0.31,0.06,10.10,1:6:26,34.060112N,-113.261093W,26736.70,7.72,15
9297457,24.75,23738.88,318,-8.59,-0.26,-0.11,10.00,1:6:27,34.060112N,-113.261055W,26740.60,7.76,15
9298458,24.71,23789.15,370,-8.63,-0.38,-0.13,9.91,1:6:28,34.060108N,-113.261032W,26744.60,7.71,15
9299459,24.68,23991.09,365,-8.56,-0.43,-0.00,9.92,1:6:29,34.060101N,-113.260994W,26748.70,7.68,15
9300460,24.65,24325.70,379,-8.54,-0.36,-0.04,9.98,1:6:30,34.060093N,-113.260956W,26752.70,7.93,15
9301461,24.65,24593.92,385,-8.52,-0.35,-0.18,10.04,1:6:31,34.060074N,-113.260918W,26756.60,8.68,15
9302462,24.66,24536.97,394,-8.53,-0.41,-0.22,10.03,1:6:32,34.060055N,-113.260880W,26760.30,9.86,15
9303463,24.66,24303.62,380,-8.48,-0.40,-0.36,10.03,1:6:33,34.060028N,-113.260841W,26763.90,10.93,15
9304464,24.69,24149.52,376,-8.56,-0.37,-0.38,10.13,1:6:34,34.060001N,-113.260788W,26767.50,11.53,15
9305465,24.74,24221.13,385,-8.50,-0.21,-0.35,10.21,1:6:35,34.059978N,-113.260735W,26771.00,11.57,15
9306466,24.79,24473.09,371,-8.47,-0.24,-0.10,10.25,1:6:36,34.059952N,-113.260696W,26774.50,11.53,15
9307467,24.81,24586.11,385,-8.50,-0.25,-0.09,10.21,1:6:37,34.059929N,-113.260643W,26778.10,11.27,15
9308468,24.86,24555.01,356,-8.46,-0.44,-0.09,10.15,1:6:38,34.059906N,-113.260597W,26781.80,11.25,15
9309469,24.88,24547.27,345,-8.40,-0.39,-0.19,10.04,1:6:39,34.059883N,-113.260544W,26785.80,11.51,15
