time_since_start,bme_temp,bme_alt,uv,ism_temp,acc_x,acc_y,acc_z,gps_time,latitude,longitude,gps_alt,speed,sats
3604769,25.54,647.83,57,33.68,-0.62,0.14,10.07,11:31:35,33.664001N,-114.008347W,745.70,0.13,18
3605770,25.45,649.96,176,33.70,-1.07,-0.33,10.19,11:31:36,33.664001N,-114.008347W,748.00,0.15,18
3606771,25.58,657.50,177,33.71,-0.18,-0.06,10.31,11:31:37,33.664009N,-114.008362W,750.40,0.26,18
3607772,25.55,661.22,184,33.64,0.05,-0.05,10.46,11:31:38,33.664021N,-114.008369W,755.00,0.32,18
3608773,25.63,668.06,201,33.67,-0.44,-0.06,10.32,11:31:39,33.664032N,-114.008385W,758.90,0.33,18
3609774,25.54,675.97,219,33.65,-0.40,-0.26,10.15,11:31:40,33.664040N,-114.008400W,762.90,0.26,18
3610775,25.40,660.96,213,33.64,0.44,0.07,10.08,11:31:41,33.664047N,-114.008408W,766.60,0.18,18
3611776,25.50,656.79,205,33.66,-0.67,-0.73,10.05,11:31:42,33.664043N,-114.008423W,769.20,1.34,18
3612777,25.85,661.40,55,33.65,-0.43,0.12,10.09,11:31:43,33.664040N,-114.008423W,771.60,2.68,18
3613778,25.70,666.28,158,33.65,-0.83,-0.63,9.99,11:31:44,33.664032N,-114.008423W,776.00,2.97,18
3614779,25.77,677.12,192,33.62,-0.03,-0.00,10.02,11:31:45,33.664021N,-114.008438W,780.10,3.36,18
3615780,25.64,686.91,181,33.61,0.00,0.43,10.11,11:31:46,33.664013N,-114.008446W,783.70,4.33,18
3616781,25.50,695.36,199,33.61,-0.06,-0.46,10.04,11:31:47,33.664013N,-114.008476W,787.10,5.13,18
3617782,25.37,703.02,199,33.68,-0.84,-0.12,9.84,11:31:48,33.664017N,-114.008514W,791.50,5.71,18
3618783,25.26,714.35,209,33.58,-0.44,0.17,10.05,11:31:49,33.664021N,-114.008537W,796.20,5.28,18
3619784,25.17,713.81,228,33.64,-0.07,-0.44,9.89,11:31:50,33.664021N,-114.008560W,801.00,4.41,18
3620785,25.12,716.58,204,33.62,-0.76,-0.48,9.90,11:31:51,33.664021N,-114.008591W,804.50,4.67,18
3621786,25.08,719.34,214,33.59,-0.58,-0.15,10.26,11:31:52,33.664021N,-114.008614W,808.50,4.27,18
3622787,25.03,723.27,203,33.63,-0.63,-0.28,10.25,11:31:53,33.664021N,-114.008629W,811.60,4.53,18
3623788,24.98,733.90,206,33.61,-0.34,-0.17,10.10,11:31:54,33.664024N,-114.008652W,815.50,5.08,18
3624789,24.97,743.38,209,33.60,-0.36,-0.26,10.11,11:31:55,33.664036N,-114.008675W,819.70,5.13,18
3625790,24.99,752.25,215,33.64,0.02,-0.24,10.02,11:31:56,33.664043N,-114.008705W,823.90,4.58,18
3626791,25.01,758.51,205,33.64,-0.49,-0.22,10.14,11:31:57,33.664051N,-114.008720W,828.10,3.76,18
3627792,25.01,761.92,220,33.63,-0.30,-0.25,10.24,11:31:58,33.664059N,-114.008728W,831.30,2.85,18
3628793,25.00,762.55,194,33.64,-0.68,0.07,9.94,11:31:59,33.664062N,-114.008743W,834.50,2.34,18
3629794,24.97,763.35,174,33.59,0.07,-0.27,9.92,11:32:0,33.664070N,-114.008759W,837.50,2.35,18
3630795,24.90,763.62,190,33.59,-0.02,-0.20,10.16,11:32:1,33.664082N,-114.008766W,840.60,3.56,18
3631796,24.90,765.33,187,33.56,-0.02,-0.31,10.21,11:32:2,33.664093N,-114.008766W,843.50,3.94,18
3632797,24.91,758.78,209,33.58,-0.03,-0.21,10.05,11:32:3,33.664101N,-114.008781W,846.60,3.61,18
3633798,25.21,743.92,55,33.57,-0.64,-0.25,9.93,11:32:4,33.664112N,-114.008797W,849.50,3.43,18
3634799,25.36,747.41,214,33.57,-0.55,-0.39,10.01,11:32:5,33.664124N,-114.008804W,852.60,3.68,18
3635800,25.22,759.50,213,33.56,-0.22,0.07,10.34,11:32:6,33.664135N,-114.008835W,855.80,3.74,18
3636801,25.10,766.67,197,33.54,-0.27,-0.71,9.95,11:32:7,33.664143N,-114.008842W,858.90,3.92,18
3637802,24.99,772.14,187,33.60,-0.16,-0.38,9.95,11:32:8,33.664158N,-114.008873W,862.00,4.52,18
3638803,24.93,776.90,208,33.61,-0.15,-0.18,10.16,11:32:9,33.664173N,-114.008881W,865.60,4.52,18
3639804,24.91,781.48,214,33.59,-0.74,-0.52,10.16,11:32:10,33.664188N,-114.008896W,869.40,4.10,18
3640805,24.92,785.43,166,33.55,-0.26,-0.16,10.27,11:32:11,33.664204N,-114.008911W,872.40,4.07,18
3641806,24.93,788.67,195,33.58,-0.47,-0.33,9.82,11:32:12,33.664219N,-114.008919W,875.30,4.09,18
3642807,24.93,792.53,138,33.59,-0.33,-0.10,10.13,11:32:13,33.664227N,-114.008934W,878.20,3.51,18
3643808,24.93,796.49,191,33.55,-0.17,-0.03,10.25,11:32:14,33.664234N,-114.008949W,881.20,4.10,18
3644809,24.92,800.17,164,33.53,0.16,-0.25,10.13,11:32:15,33.664238N,-114.008972W,884.30,5.27,18
3645810,24.91,803.68,166,33.55,-0.29,-0.27,10.07,11:32:16,33.664246N,-114.008995W,888.10,6.27,18
3646811,24.90,807.28,189,33.55,-0.22,-0.55,9.90,11:32:17,33.664253N,-114.009033W,892.30,6.18,18
3647812,24.87,810.53,199,33.56,-0.17,0.08,10.06,11:32:18,33.664257N,-114.009064W,896.60,6.24,18
3648813,24.84,813.86,194,33.53,-0.30,0.04,10.13,11:32:19,33.664261N,-114.009087W,900.80,6.56,18
3649814,24.81,817.19,206,33.56,0.00,-0.13,9.99,11:32:20,33.664268N,-114.009125W,905.10,6.51,18
3650815,24.78,820.35,195,33.55,-0.24,-0.09,9.95,11:32:21,33.664276N,-114.009155W,909.30,6.50,18
3651816,24.74,823.86,196,33.56,-0.29,0.04,10.11,11:32:22,33.664280N,-114.009178W,913.50,7.10,18
3652817,24.71,827.65,208,33.51,-0.17,0.10,10.32,11:32:23,33.664284N,-114.009216W,917.60,7.39,18
3653818,24.66,831.44,210,33.52,-0.36,-0.16,10.11,11:32:24,33.664280N,-114.009254W,921.60,7.37,18
3654819,24.59,835.05,184,33.55,-0.37,-0.37,10.00,11:32:25,33.664276N,-114.009293W,925.90,7.03,18
3655820,24.53,838.93,169,33.54,-0.28,-0.34,10.31,11:32:26,33.664268N,-114.009315W,930.10,6.65,18
3656821,24.48,842.82,182,33.55,0.01,-0.13,10.21,11:32:27,33.664257N,-114.009346W,934.30,6.26,18
3657822,24.45,847.52,208,33.55,-0.19,-0.59,9.97,11:32:28,33.664242N,-114.009369W,938.60,6.01,18
3658823,24.38,848.51,55,33.55,-0.54,-0.32,10.06,11:32:29,33.664234N,-114.009392W,942.80,5.52,18
3659824,24.32,853.12,184,33.55,-0.53,-0.40,10.20,11:32:30,33.664223N,-114.009422W,947.00,5.20,18
3660825,24.30,857.55,213,33.59,0.02,0.21,10.05,11:32:31,33.664215N,-114.009445W,951.20,6.09,18
3661826,24.25,865.52,243,33.55,-0.31,-0.21,9.82,11:32:32,33.664207N,-114.009476W,955.30,6.40,18
3662827,24.21,880.29,224,33.54,0.02,-0.20,10.06,11:32:33,33.664196N,-114.009499W,959.60,5.71,18
3663828,24.16,860.72,58,33.53,0.24,-0.27,10.27,11:32:34,33.664185N,-114.009521W,963.60,5.42,18
3664829,24.23,857.10,209,33.54,-0.29,-0.32,9.98,11:32:35,33.664169N,-114.009537W,967.40,4.98,18
3665830,24.58,864.70,234,33.55,0.02,-0.18,9.95,11:32:36,33.664154N,-114.009552W,971.30,4.10,18
3666831,24.52,871.22,228,33.52,0.11,-0.48,10.10,11:32:37,33.664143N,-114.009560W,974.20,3.29,18
3667832,24.49,876.75,175,33.50,-0.10,-0.03,10.17,11:32:38,33.664131N,-114.009560W,976.90,2.47,18
3668833,24.47,881.83,189,33.54,0.11,-0.02,10.04,11:32:39,33.664124N,-114.009575W,979.50,1.71,18
3669834,24.45,886.64,209,33.52,-0.61,-0.46,10.02,11:32:40,33.664116N,-114.009575W,981.80,1.42,18
3670835,24.45,890.99,179,33.53,-0.96,-0.58,10.09,11:32:41,33.664108N,-114.009575W,984.10,2.29,18
3671836,24.45,895.62,201,33.52,-0.47,-0.24,10.08,11:32:42,33.664101N,-114.009575W,987.20,2.69,18
3672837,24.42,899.26,169,33.52,-0.29,-0.29,10.11,11:32:43,33.664097N,-114.009590W,990.40,2.75,18
3673838,24.38,902.53,179,33.52,0.03,0.03,10.13,11:32:44,33.664089N,-114.009590W,993.40,2.56,18
3674839,24.44,898.35,197,33.52,-0.40,-0.01,9.98,11:32:45,33.664082N,-114.009590W,996.60,2.37,18
3675840,24.70,904.71,205,33.55,-0.19,-0.19,10.00,11:32:46,33.664074N,-114.009575W,1000.00,1.59,18
3676841,24.60,909.71,218,33.52,-0.10,-0.40,9.95,11:32:47,33.664070N,-114.009575W,1002.30,1.93,18
3677842,24.55,914.53,169,33.52,-0.35,-0.73,10.17,11:32:48,33.664066N,-114.009560W,1004.70,1.86,18
3678843,24.54,916.53,213,33.48,-0.60,-0.60,10.15,11:32:49,33.664066N,-114.009552W,1007.00,1.93,18
3679844,24.67,920.17,164,33.52,-0.61,-0.09,9.92,11:32:50,33.664059N,-114.009552W,1009.20,3.36,18
3680845,24.71,925.09,230,33.53,-0.36,-0.27,9.94,11:32:51,33.664043N,-114.009552W,1012.70,4.64,18
3681846,24.68,928.91,151,33.49,0.32,-0.70,10.07,11:32:52,33.664028N,-114.009552W,1016.90,5.02,18
3682847,24.67,933.01,230,33.50,0.30,-0.27,10.43,11:32:53,33.664017N,-114.009552W,1021.20,3.91,18
3683848,24.67,924.36,211,33.51,-0.88,-0.40,10.31,11:32:54,33.664001N,-114.009537W,1024.60,3.49,18
3684849,25.05,929.00,223,33.48,0.21,-0.15,10.36,11:32:55,33.663990N,-114.009537W,1028.20,3.79,18
3685850,24.90,936.66,192,33.48,-0.56,0.04,9.89,11:32:56,33.663982N,-114.009521W,1031.90,3.31,18
3686851,24.74,942.31,181,33.49,0.11,-0.10,10.15,11:32:57,33.663982N,-114.009514W,1035.60,2.34,18
3687852,24.64,938.85,205,33.50,-0.42,-0.63,10.32,11:32:58,33.663979N,-114.009514W,1039.20,1.83,18
3688853,24.87,943.50,226,33.48,-0.45,-0.12,10.05,11:32:59,33.663967N,-114.009499W,1041.60,3.05,18
3689854,24.70,950.89,214,33.50,-0.65,0.57,10.07,11:33:0,33.663963N,-114.009499W,1045.50,2.24,18
3690855,24.56,964.23,210,33.50,-0.18,-0.25,10.11,11:33:1,33.663963N,-114.009499W,1049.40,0.08,18
3691856,24.46,973.75,228,33.49,-0.02,-0.11,10.07,11:33:2,33.663963N,-114.009499W,1052.20,0.02,18
3692857,24.38,977.41,205,33.48,-0.91,-0.10,9.98,11:33:3,33.663963N,-114.009499W,1054.90,0.08,18
3693858,24.24,980.15,186,33.46,-0.78,-0.19,10.11,11:33:4,33.663967N,-114.009483W,1057.50,0.10,18
3694859,24.15,983.36,179,33.45,0.43,0.33,10.01,11:33:5,33.663971N,-114.009483W,1059.90,0.02,18
3695860,24.10,986.93,161,33.45,-1.02,0.52,10.20,11:33:6,33.663971N,-114.009499W,1062.00,0.23,18
3696861,24.06,985.37,203,33.48,-1.25,0.56,10.40,11:33:7,33.663967N,-114.009499W,1066.60,0.31,18
3697862,24.02,992.06,225,33.49,-0.85,-0.28,9.90,11:33:8,33.663963N,-114.009514W,1071.50,0.17,18
3698863,23.97,996.83,206,33.45,0.40,0.24,9.37,11:33:9,33.663967N,-114.009521W,1073.70,0.31,18
3699864,23.92,1001.14,210,33.46,-1.46,-0.48,10.02,11:33:10,33.663975N,-114.009537W,1078.30,0.20,18
3700865,23.88,1010.51,235,33.47,-1.42,0.60,10.61,11:33:11,33.663979N,-114.009537W,1080.00,0.16,18
3701866,23.81,1006.56,203,33.47,0.36,0.05,10.19,11:33:12,33.663979N,-114.009521W,1081.60,4.30,18
3702867,23.72,999.49,214,33.46,-0.88,-1.73,9.78,11:33:13,33.663967N,-114.009514W,1086.80,3.69,18
3703868,23.65,1003.99,57,33.45,-0.45,-0.40,10.09,11:33:14,33.663948N,-114.009499W,1092.10,3.33,18
3704869,23.58,1005.27,182,33.43,0.56,0.33,10.32,11:33:15,33.663933N,-114.009483W,1097.50,3.26,18
3705870,23.79,1005.82,219,33.46,-0.85,-0.30,10.34,11:33:16,33.663918N,-114.009483W,1102.40,3.00,18
3706871,23.93,1013.91,208,33.47,-0.75,0.01,9.94,11:33:17,33.663906N,-114.009499W,1106.90,4.30,18
3707872,23.75,1020.98,179,33.47,-0.05,-0.46,9.95,11:33:18,33.663895N,-114.009521W,1111.30,4.33,18
3708873,23.61,1027.60,192,33.48,-0.76,-0.42,10.43,11:33:19,33.663883N,-114.009537W,1115.80,3.61,18
3709874,23.52,1033.22,175,33.43,-0.36,-0.09,10.16,11:33:20,33.663872N,-114.009552W,1119.90,4.47,18
3710875,23.42,1038.46,169,33.48,-0.18,0.03,10.06,11:33:21,33.663860N,-114.009560W,1124.00,5.13,18
3711876,23.34,1043.35,179,33.43,-0.02,-0.63,9.93,11:33:22,33.663845N,-114.009575W,1128.80,4.65,18
3712877,23.27,1048.69,199,33.46,0.18,-0.57,9.88,11:33:23,33.663826N,-114.009590W,1133.80,4.43,18
3713878,23.18,1045.74,210,33.39,-0.57,-0.47,10.03,11:33:24,33.663818N,-114.009598W,1137.80,4.78,18
3714879,23.11,1057.36,218,33.43,-0.23,-0.02,10.14,11:33:25,33.663815N,-114.009628W,1142.90,5.06,18
3715880,23.07,1062.25,235,33.41,-0.69,0.06,10.10,11:33:26,33.663811N,-114.009651W,1147.80,4.98,18
3716881,23.05,1065.95,169,33.41,-0.62,-0.03,10.13,11:33:27,33.663811N,-114.009674W,1152.80,4.33,18
3717882,23.02,1069.55,210,33.45,0.25,0.00,10.28,11:33:28,33.663811N,-114.009689W,1156.30,3.50,18
3718883,23.00,1073.15,189,33.40,-0.17,-0.50,10.25,11:33:29,33.663811N,-114.009705W,1159.80,2.97,18
3719884,22.99,1076.29,210,33.41,0.08,-0.33,10.08,11:33:30,33.663803N,-114.009712W,1163.40,2.00,18
3720885,23.01,1075.92,200,33.39,0.07,-0.37,10.06,11:33:31,33.663803N,-114.009727W,1165.90,1.55,18
3721886,23.20,1077.59,224,33.39,-0.78,-0.69,10.08,11:33:32,33.663795N,-114.009727W,1168.50,1.51,18
3722887,23.11,1093.13,229,33.41,-0.42,0.03,10.25,11:33:33,33.663792N,-114.009727W,1171.60,1.30,18
3723888,23.02,1106.84,243,33.35,-0.05,0.11,10.05,11:33:34,33.663784N,-114.009743W,1174.50,0.98,18
3724889,22.97,1108.23,210,33.42,-0.24,0.35,10.00,11:33:35,33.663784N,-114.009743W,1177.40,1.31,18
3725890,22.90,1109.35,194,33.43,0.05,-0.21,9.95,11:33:36,33.663780N,-114.009743W,1180.40,1.58,18
3726891,22.85,1111.01,197,33.43,-0.67,-0.46,10.17,11:33:37,33.663776N,-114.009743W,1182.90,1.38,18
3727892,22.81,1114.35,203,33.39,-0.55,-0.59,10.05,11:33:38,33.663773N,-114.009743W,1185.40,1.65,18
3728893,22.76,1116.77,214,33.39,-0.43,-0.38,9.82,11:33:39,33.663765N,-114.009743W,1188.00,1.42,18
3729894,22.72,1099.24,214,33.40,-0.40,-0.36,9.98,11:33:40,33.663765N,-114.009743W,1190.60,1.43,18
3730895,22.88,1113.80,214,33.34,0.09,-0.13,10.22,11:33:41,33.663754N,-114.009727W,1193.60,3.31,18
3731896,22.81,1120.48,219,33.36,-0.66,0.06,10.31,11:33:42,33.663742N,-114.009727W,1200.00,2.80,18
3732897,22.70,1129.49,211,33.36,-0.27,-0.22,10.04,11:33:43,33.663734N,-114.009712W,1205.90,2.53,18
3733898,22.54,1134.41,216,33.37,-0.38,0.00,10.30,11:33:44,33.663723N,-114.009705W,1211.90,2.56,18
3734899,22.34,1138.04,165,33.36,-0.31,-0.36,10.03,11:33:45,33.663708N,-114.009705W,1217.70,2.99,18
3735900,22.20,1141.76,175,33.37,-0.04,0.15,10.33,11:33:46,33.663696N,-114.009705W,1223.10,2.41,18
3736901,22.15,1145.58,219,33.34,0.21,-0.09,10.21,11:33:47,33.663689N,-114.009705W,1228.40,2.43,18
3737902,22.13,1149.58,226,33.32,-0.21,-0.25,10.02,11:33:48,33.663681N,-114.009712W,1233.20,2.21,18
3738903,22.13,1153.96,201,33.40,-0.57,-0.32,9.94,11:33:49,33.663673N,-114.009727W,1236.20,2.26,18
3739904,22.14,1158.80,192,33.36,-0.24,-0.35,10.16,11:33:50,33.663666N,-114.009727W,1241.60,2.31,18
3740905,22.13,1163.46,162,33.35,-0.25,0.05,10.00,11:33:51,33.663662N,-114.009743W,1246.80,2.31,18
3741906,22.11,1168.31,189,33.29,-0.29,0.34,10.12,11:33:52,33.663654N,-114.009750W,1251.70,3.45,18
3742907,22.08,1173.91,215,33.30,-0.20,-0.86,9.96,11:33:53,33.663647N,-114.009766W,1256.70,4.10,18
3743908,22.04,1175.87,58,33.33,-0.80,-0.16,9.98,11:33:54,33.663647N,-114.009781W,1261.70,3.88,18
3744909,22.00,1159.36,192,33.27,0.11,-0.41,10.24,11:33:55,33.663647N,-114.009804W,1266.90,3.87,18
3745910,22.37,1180.16,229,33.32,0.78,-0.15,9.85,11:33:56,33.663635N,-114.009819W,1272.20,3.81,18
3746911,22.30,1188.29,214,33.32,-0.16,-0.12,9.18,11:33:57,33.663624N,-114.009827W,1277.40,3.80,18
3747912,22.24,1193.99,172,33.33,0.20,-0.56,9.92,11:33:58,33.663624N,-114.009842W,1282.60,2.68,18
3748913,22.19,1198.67,132,33.34,0.20,0.17,10.46,11:33:59,33.663620N,-114.009857W,1287.30,3.15,18
3749914,22.12,1203.91,184,33.29,-0.93,0.14,10.07,11:34:0,33.663612N,-114.009872W,1291.60,4.27,18
3750915,22.04,1198.48,218,33.30,-0.24,0.18,9.83,11:34:1,33.663601N,-114.009880W,1295.60,5.06,18
3751916,22.28,1205.32,184,33.29,-0.56,-0.37,10.03,11:34:2,33.663593N,-114.009911W,1300.80,5.39,18
3752917,22.10,1211.97,218,33.32,-0.36,-0.13,10.34,11:34:3,33.663586N,-114.009933W,1305.90,5.84,18
3753918,21.94,1217.78,218,33.33,0.10,0.10,10.16,11:34:4,33.663586N,-114.009972W,1311.10,6.24,18
3754919,21.81,1223.03,201,33.31,-0.36,-0.50,9.99,11:34:5,33.663582N,-114.009995W,1316.30,5.05,18
3755920,21.74,1228.84,220,33.27,-0.27,-0.51,10.12,11:34:6,33.663578N,-114.010025W,1321.40,4.52,18
3756921,21.67,1240.95,220,33.31,0.66,-0.64,9.86,11:34:7,33.663567N,-114.010033W,1326.50,4.91,18
3757922,21.59,1245.84,215,33.26,0.02,-0.84,9.87,11:34:8,33.663555N,-114.010063W,1331.30,6.47,18
3758923,21.56,1228.84,180,33.30,-0.08,0.23,10.42,11:34:9,33.663540N,-114.010086W,1335.90,6.50,18
3759924,21.64,1231.19,169,33.27,0.24,0.25,10.03,11:34:10,33.663521N,-114.010109W,1340.30,6.15,18
3760925,21.84,1237.95,195,33.26,-0.50,-0.30,9.82,11:34:11,33.663502N,-114.010139W,1344.80,6.55,18
3761926,21.75,1244.43,216,33.25,-0.20,0.43,10.10,11:34:12,33.663479N,-114.010147W,1349.20,6.74,18
3762927,21.66,1240.86,223,33.32,-0.51,-0.21,10.18,11:34:13,33.663460N,-114.010178W,1353.30,5.40,18
3763928,21.58,1244.05,165,33.27,-1.00,0.39,10.11,11:34:14,33.663445N,-114.010185W,1357.60,4.60,18
3764929,21.74,1251.29,180,33.27,-0.07,-0.15,9.85,11:34:15,33.663429N,-114.010216W,1361.70,5.57,18
3765930,21.63,1258.63,229,33.25,0.05,0.23,10.31,11:34:16,33.663418N,-114.010239W,1365.90,6.38,18
3766931,21.52,1265.97,59,33.29,-0.25,0.08,10.26,11:34:17,33.663410N,-114.010269W,1370.20,6.42,18
3767932,21.44,1267.48,192,33.28,0.01,-0.47,9.99,11:34:18,33.663406N,-114.010292W,1374.40,6.47,18
3768933,21.59,1272.85,224,33.29,-0.32,-0.18,9.75,11:34:19,33.663395N,-114.010330W,1378.50,6.49,18
3769934,21.51,1277.94,211,33.27,-0.06,-0.08,10.11,11:34:20,33.663387N,-114.010353W,1382.60,6.51,18
3770935,21.42,1283.89,208,33.24,-0.01,-0.19,10.17,11:34:21,33.663372N,-114.010384W,1386.70,6.10,18
3771936,21.33,1291.25,224,33.25,-0.43,-0.01,10.02,11:34:22,33.663364N,-114.010406W,1390.90,6.09,18
3772937,21.20,1300.69,216,33.26,-0.08,-0.09,10.12,11:34:23,33.663349N,-114.010429W,1394.80,6.04,18
3773938,21.11,1303.24,214,33.27,0.27,-0.31,10.11,11:34:24,33.663338N,-114.010460W,1398.80,6.87,18
3774939,21.05,1304.85,174,33.25,-0.17,-0.33,10.12,11:34:25,33.663326N,-114.010498W,1402.70,7.11,18
3775940,20.97,1307.03,141,33.25,0.04,-0.49,9.84,11:34:26,33.663315N,-114.010521W,1406.70,6.60,18
3776941,20.92,1308.92,235,33.23,-0.38,0.11,9.89,11:34:27,33.663307N,-114.010544W,1410.70,6.89,18
3777942,20.87,1309.86,175,33.23,-0.66,-0.01,10.25,11:34:28,33.663307N,-114.010582W,1414.50,7.52,18
3778943,20.94,1312.89,186,33.24,-0.10,0.37,10.16,11:34:29,33.663307N,-114.010628W,1418.30,7.70,18
3779944,20.93,1310.15,209,33.25,-0.05,-0.30,10.14,11:34:30,33.663311N,-114.010666W,1422.20,7.70,18
3780945,21.12,1314.69,224,33.24,-0.12,-0.20,9.96,11:34:31,33.663319N,-114.010704W,1426.00,7.07,18
3781946,20.96,1321.69,219,33.23,-0.35,-0.10,10.12,11:34:32,33.663326N,-114.010727W,1429.90,6.13,18
3782947,20.86,1326.53,223,33.24,-0.17,-0.51,10.11,11:34:33,33.663326N,-114.010750W,1433.80,5.44,18
3783948,20.78,1330.88,171,33.23,0.04,0.29,10.17,11:34:34,33.663326N,-114.010780W,1437.60,4.82,18
3784949,20.71,1334.01,216,33.20,-0.48,0.04,9.95,11:34:35,33.663326N,-114.010803W,1441.60,5.08,18
3785950,20.66,1329.84,200,33.24,-0.37,-0.06,10.14,11:34:36,33.663322N,-114.010826W,1445.50,5.36,18
3786951,20.87,1332.69,228,33.21,-0.62,0.50,9.97,11:34:37,33.663322N,-114.010857W,1449.40,5.38,18
3787952,20.72,1343.31,209,33.22,-0.35,-0.16,9.76,11:34:38,33.663326N,-114.010880W,1453.20,5.31,18
3788953,20.62,1348.72,211,33.24,0.06,-0.11,10.06,11:34:39,33.663330N,-114.010902W,1456.90,5.40,18
3789954,20.55,1352.99,169,33.21,-0.28,-0.22,10.28,11:34:40,33.663338N,-114.010933W,1460.40,5.39,18
3790955,20.52,1357.17,219,33.20,-0.03,-0.18,10.02,11:34:41,33.663345N,-114.010941W,1463.90,5.01,18
3791956,20.49,1347.20,215,33.19,-0.37,-0.42,9.89,11:34:42,33.663357N,-114.010971W,1467.30,4.35,18
3792957,20.47,1362.21,223,33.19,-0.20,-0.24,10.07,11:34:43,33.663364N,-114.010979W,1469.40,3.67,18
3793958,20.41,1368.11,220,33.19,-0.60,-0.24,10.31,11:34:44,33.663368N,-114.011009W,1471.80,3.72,18
3794959,20.35,1371.44,177,33.18,-0.49,-0.80,10.18,11:34:45,33.663368N,-114.011024W,1474.40,3.72,18
3795960,20.29,1374.20,214,33.17,0.26,-0.08,10.01,11:34:46,33.663372N,-114.011032W,1477.00,3.75,18
3796961,20.28,1365.45,231,33.21,-0.35,-0.68,9.97,11:34:47,33.663380N,-114.011063W,1479.90,3.74,18
3797962,20.67,1352.42,230,33.15,-0.13,-0.28,10.19,11:34:48,33.663383N,-114.011070W,1482.50,2.50,18
3798963,21.02,1341.70,57,33.17,-0.32,-0.47,10.19,11:34:49,33.663380N,-114.011086W,1485.60,3.02,18
3799964,21.22,1334.68,229,33.19,-0.20,-0.45,10.13,11:34:50,33.663376N,-114.011101W,1488.70,3.71,18
3800965,21.34,1335.53,216,33.14,0.00,-0.15,10.04,11:34:51,33.663368N,-114.011108W,1491.70,4.18,18
3801966,21.55,1351.47,180,33.13,-0.03,-0.78,10.22,11:34:52,33.663353N,-114.011124W,1494.80,4.91,18
3802967,21.42,1365.64,204,33.15,-0.09,0.04,10.38,11:34:53,33.663342N,-114.011147W,1498.80,5.61,18
3803968,21.18,1377.15,205,33.15,-0.67,0.05,10.39,11:34:55,33.663322N,-114.011185W,1507.30,5.54,18
3804969,20.98,1386.87,204,33.11,-0.17,-0.51,9.88,11:34:55,33.663322N,-114.011185W,1507.30,5.04,18
3805970,20.83,1396.02,162,33.14,-0.33,-0.10,10.11,11:34:57,33.663311N,-114.011253W,1516.60,5.01,18
3806971,20.70,1404.13,205,33.11,0.04,-0.16,10.01,11:34:57,33.663311N,-114.011253W,1516.60,6.32,18
3807972,20.58,1411.20,201,33.12,-0.57,-0.33,10.01,11:34:59,33.663311N,-114.011314W,1526.30,6.62,18
3808973,20.48,1417.70,218,33.12,-0.45,-0.15,10.12,11:34:59,33.663311N,-114.011314W,1526.30,6.38,18
3809974,20.40,1424.59,233,33.07,-0.12,-0.34,10.16,11:35:1,33.663307N,-114.011375W,1535.60,6.70,18
3810975,20.30,1431.96,219,33.17,0.11,-0.49,9.98,11:35:2,33.663307N,-114.011421W,1540.30,7.27,18
3811976,20.18,1439.14,223,33.10,-0.05,-0.28,9.94,11:35:3,33.663307N,-114.011444W,1544.90,7.34,18
3812977,20.10,1446.90,220,33.09,-0.30,-0.23,10.18,11:35:4,33.663307N,-114.011482W,1549.40,7.56,18
3813978,20.07,1452.85,226,33.08,-0.25,-0.37,10.07,11:35:5,33.663311N,-114.011520W,1553.90,7.99,18
3814979,20.07,1453.43,234,33.07,-0.01,-0.30,10.10,11:35:6,33.663326N,-114.011559W,1558.20,8.38,18
3815980,20.08,1462.16,236,33.08,-0.32,-0.16,10.12,11:35:7,33.663334N,-114.011597W,1562.70,7.92,18
3816981,20.08,1471.86,226,33.06,-0.34,-0.10,10.05,11:35:8,33.663345N,-114.011635W,1567.20,7.40,18
3817982,20.07,1475.52,218,33.07,-0.07,-0.38,10.11,11:35:9,33.663353N,-114.011658W,1571.70,6.94,18
3818983,20.07,1462.26,205,33.07,-0.31,0.22,10.08,11:35:10,33.663368N,-114.011688W,1576.00,6.73,18
3819984,20.45,1467.35,257,33.03,0.11,-0.18,9.98,11:35:11,33.663383N,-114.011711W,1580.50,6.71,18
3820985,20.32,1472.34,172,33.10,-0.00,-0.36,10.13,11:35:12,33.663395N,-114.011749W,1585.10,6.22,18
3821986,20.23,1474.56,177,33.07,-0.32,-0.17,10.03,11:35:13,33.663410N,-114.011780W,1589.60,5.86,18
3822987,20.29,1475.32,215,33.07,-0.09,0.21,10.01,11:35:14,33.663425N,-114.011787W,1594.10,6.26,18
3823988,20.38,1476.96,224,33.07,-0.23,-0.22,10.20,11:35:15,33.663445N,-114.011818W,1598.60,5.95,18
3824989,20.44,1472.73,220,33.04,0.03,-0.33,10.13,11:35:16,33.663460N,-114.011826W,1602.90,5.10,18
3825990,20.62,1478.88,229,33.01,-0.26,-0.39,9.89,11:35:17,33.663471N,-114.011841W,1607.30,4.59,18
3826991,20.39,1487.93,213,33.02,-0.36,-0.32,10.16,11:35:18,33.663483N,-114.011856W,1610.30,3.79,18
3827992,20.19,1495.25,225,33.02,-0.66,-0.29,10.20,11:35:19,33.663486N,-114.011856W,1613.40,2.92,18
3828993,20.00,1501.32,195,33.00,-0.29,-0.01,10.09,11:35:20,33.663494N,-114.011864W,1616.10,2.29,17
3829994,19.87,1506.43,213,33.02,-0.14,-0.11,10.17,11:35:21,33.663502N,-114.011864W,1619.20,2.33,17
3830995,19.82,1503.15,192,33.03,-0.14,0.15,10.13,11:35:22,33.663506N,-114.011879W,1622.00,2.98,17
3831996,20.05,1496.31,208,33.04,0.02,0.32,10.34,11:35:23,33.663506N,-114.011894W,1624.80,0.16,17
3832997,20.17,1497.66,226,33.00,0.18,-0.11,10.04,11:35:24,33.663509N,-114.011894W,1627.50,0.18,17
3833998,19.98,1503.73,226,32.98,-0.49,-0.60,10.15,11:35:25,33.663517N,-114.011917W,1630.90,0.32,17
3834999,19.80,1513.67,234,33.01,-0.56,-0.79,10.14,11:35:26,33.663528N,-114.011955W,1635.50,5.11,17
3836000,19.66,1528.93,249,32.96,0.04,-0.11,10.24,11:35:27,33.663540N,-114.011993W,1640.90,6.60,17
3837001,19.58,1549.44,226,33.02,-0.26,0.06,9.99,11:35:28,33.663544N,-114.012032W,1646.20,7.35,17
3838002,19.54,1558.94,229,33.02,-0.57,-0.11,10.00,11:35:29,33.663548N,-114.012070W,1651.70,7.76,17
3839003,19.51,1574.85,235,32.99,-0.33,0.10,10.10,11:35:30,33.663544N,-114.012093W,1657.20,6.70,17
3840004,19.46,1562.43,254,32.97,0.04,-0.44,10.31,11:35:31,33.663536N,-114.012123W,1662.80,5.54,17
3841005,19.43,1557.58,224,32.99,-0.48,-0.55,10.13,11:35:32,33.663525N,-114.012146W,1668.50,5.33,17
3842006,19.37,1567.77,215,32.97,-0.57,-0.66,10.16,11:35:33,33.663517N,-114.012177W,1674.20,5.78,17
3843007,19.32,1566.80,225,33.01,-0.35,-0.19,10.13,11:35:34,33.663509N,-114.012215W,1679.80,6.39,17
3844008,19.28,1556.61,258,32.96,0.20,-0.22,9.94,11:35:35,33.663506N,-114.012238W,1685.50,6.47,17
3845009,19.28,1568.74,260,32.99,-0.08,-0.19,10.05,11:35:36,33.663498N,-114.012260W,1691.10,6.73,17
3846010,19.26,1591.67,236,32.96,-0.18,0.06,10.15,11:35:37,33.663490N,-114.012299W,1696.60,6.69,17
3847011,19.25,1607.63,230,32.97,-0.39,0.39,10.06,11:35:38,33.663483N,-114.012314W,1702.10,5.62,17
3848012,19.21,1618.36,224,32.96,0.14,-0.02,9.90,11:35:39,33.663467N,-114.012329W,1707.60,4.98,17
3849013,19.16,1621.28,215,32.95,-0.14,-0.43,9.96,11:35:40,33.663448N,-114.012352W,1713.00,5.43,17
3850014,19.11,1615.43,223,32.98,-0.28,-0.47,9.97,11:35:41,33.663429N,-114.012367W,1718.40,5.78,17
3851015,19.06,1620.01,221,32.94,-0.35,-0.15,10.16,11:35:42,33.663414N,-114.012390W,1723.60,6.10,17
3852016,19.03,1629.58,235,32.93,-0.30,0.00,10.13,11:35:43,33.663399N,-114.012413W,1728.80,6.47,17
3853017,19.01,1640.81,229,32.92,-0.18,-0.20,10.04,11:35:44,33.663387N,-114.012451W,1734.10,6.92,17
3854018,18.99,1636.90,58,32.94,0.02,-0.20,10.06,11:35:45,33.663372N,-114.012482W,1739.20,6.91,17
3855019,18.97,1628.80,220,32.92,-0.07,-0.47,10.12,11:35:46,33.663353N,-114.012505W,1744.50,6.57,17
3856020,19.34,1634.95,206,32.91,-0.42,-0.43,9.85,11:35:47,33.663334N,-114.012527W,1749.70,6.81,17
3857021,19.29,1640.23,189,32.87,-0.54,-0.12,9.78,11:35:48,33.663311N,-114.012558W,1754.90,7.72,17
3858022,19.29,1644.43,172,32.89,-0.14,-0.17,10.15,11:35:49,33.663288N,-114.012596W,1760.00,8.55,17
3859023,19.36,1649.32,213,32.93,-0.43,-0.27,10.18,11:35:50,33.663265N,-114.012634W,1765.00,9.45,17
3860024,19.31,1655.09,209,32.88,0.00,-0.09,9.93,11:35:51,33.663242N,-114.012688W,1770.00,10.72,17
3861025,19.23,1660.48,211,32.88,-0.21,-0.22,10.03,11:35:52,33.663216N,-114.012726W,1774.90,11.73,17
3862026,19.17,1665.87,208,32.83,-0.52,-0.14,10.04,11:35:53,33.663193N,-114.012772W,1779.70,11.73,17
3863027,19.10,1672.44,233,32.87,-0.34,-0.04,10.04,11:35:54,33.663170N,-114.012825W,1784.70,11.46,17
3864028,19.04,1680.87,219,32.86,0.16,-0.41,10.14,11:35:55,33.663147N,-114.012863W,1789.50,11.44,17
3865029,18.95,1685.39,229,32.82,0.05,-0.13,10.09,11:35:56,33.663128N,-114.012917W,1794.50,11.38,17
3866030,18.83,1688.82,175,32.85,-0.41,-0.12,10.16,11:35:57,33.663105N,-114.012955W,1799.60,11.36,17
3867031,18.75,1692.26,199,32.84,-0.11,-0.20,10.04,11:35:58,33.663086N,-114.013016W,1804.90,11.38,17
3868032,18.71,1696.09,206,32.86,-0.11,-0.17,10.08,11:35:59,33.663067N,-114.013069W,1810.10,11.90,17
3869033,18.69,1700.91,199,32.83,-0.30,-0.33,10.01,11:36:0,33.663048N,-114.013123W,1815.30,12.28,17
3870034,18.66,1690.79,238,32.82,-0.12,-0.32,10.00,11:36:1,33.663033N,-114.013184W,1820.40,12.24,17
3871035,19.07,1689.32,239,32.84,-0.27,-0.26,9.90,11:36:2,33.663013N,-114.013237W,1825.50,12.02,17
3872036,18.97,1694.72,231,32.82,-0.25,-0.62,9.88,11:36:3,33.662998N,-114.013283W,1830.40,12.00,17
3873037,18.92,1690.59,54,32.79,-0.25,-0.40,10.18,11:36:4,33.662979N,-114.013336W,1835.30,12.19,17
3874038,18.93,1696.09,214,32.77,-0.48,-0.33,10.00,11:36:5,33.662964N,-114.013405W,1840.30,12.13,17
3875039,18.91,1705.63,214,32.77,-0.49,-0.47,9.95,11:36:6,33.662949N,-114.013451W,1845.10,12.19,17
3876040,18.89,1721.98,220,32.76,-0.24,-0.11,10.24,11:36:7,33.662933N,-114.013504W,1849.90,12.53,17
3877041,18.87,1737.56,228,32.77,0.14,-0.09,10.10,11:36:8,33.662922N,-114.013565W,1854.60,12.59,17
3878043,18.86,1751.19,239,32.79,-0.07,-0.26,10.15,11:36:9,33.662910N,-114.013634W,1859.50,12.61,17
3879044,18.87,1759.40,230,32.77,-0.16,-0.14,10.10,11:36:10,33.662903N,-114.013680W,1864.30,12.61,17
3880045,18.88,1765.14,244,32.79,-0.05,-0.10,10.09,11:36:11,33.662895N,-114.013748W,1869.20,12.49,17
3881046,18.85,1767.91,239,32.75,-0.15,-0.20,10.03,11:36:12,33.662891N,-114.013802W,1874.20,12.50,17
3882047,18.75,1770.18,185,32.78,0.06,-0.25,9.97,11:36:13,33.662884N,-114.013863W,1879.20,12.50,17
3883048,18.70,1772.96,195,32.75,0.01,-0.15,9.98,11:36:14,33.662876N,-114.013924W,1884.20,13.37,17
3884049,18.67,1776.13,224,32.76,-0.13,-0.16,9.81,11:36:15,33.662872N,-114.013992W,1889.40,13.37,17
3885050,18.62,1779.50,195,32.75,-0.18,-0.01,10.06,11:36:16,33.662872N,-114.014053W,1894.30,13.80,17
3886051,18.59,1783.66,192,32.74,-0.14,-0.02,10.08,11:36:17,33.662876N,-114.014130W,1899.20,14.12,17
3887052,18.59,1782.87,219,32.76,-0.27,-0.21,10.05,11:36:18,33.662880N,-114.014198W,1904.10,13.88,17
3888054,18.80,1786.24,191,32.76,-0.46,-0.33,10.07,11:36:19,33.662884N,-114.014259W,1908.90,13.69,17
3889054,18.87,1792.49,206,32.75,-0.47,-0.18,10.03,11:36:20,33.662888N,-114.014336W,1913.60,13.69,17
3890055,18.76,1798.05,199,32.73,-0.03,-0.00,10.07,11:36:21,33.662891N,-114.014389W,1918.40,13.39,17
3891056,18.65,1803.31,165,32.73,-0.11,0.02,10.15,11:36:22,33.662895N,-114.014465W,1923.10,13.39,17
3892057,18.56,1808.08,215,32.75,-0.15,-0.19,9.99,11:36:23,33.662903N,-114.014526W,1927.80,13.65,17
3893058,18.49,1813.25,233,32.69,-0.10,-0.11,10.13,11:36:24,33.662910N,-114.014595W,1932.50,13.39,17
3894059,18.44,1818.32,211,32.71,-0.23,-0.38,9.98,11:36:25,33.662918N,-114.014656W,1937.00,12.66,17
3895060,18.42,1823.30,209,32.71,-0.28,-0.46,10.01,11:36:26,33.662933N,-114.014709W,1941.50,11.64,17
3896061,18.43,1828.18,211,32.71,-0.53,-0.39,10.24,11:36:27,33.662949N,-114.014755W,1946.10,10.81,17
3897062,18.46,1832.76,238,32.70,-0.06,-0.23,10.12,11:36:28,33.662964N,-114.014809W,1950.90,10.22,17
3898063,18.49,1837.94,184,32.69,-0.28,-0.10,10.17,11:36:29,33.662975N,-114.014847W,1955.70,9.91,17
3899064,18.50,1837.84,223,32.69,-0.38,-0.23,10.08,11:36:30,33.662987N,-114.014900W,1960.70,9.83,17
3900065,18.72,1838.04,223,32.64,-0.15,-0.09,10.16,11:36:31,33.662998N,-114.014938W,1965.60,10.14,17
3901066,18.90,1838.74,213,32.67,-0.18,-0.01,10.12,11:36:32,33.663010N,-114.014992W,1970.70,10.19,17
3902067,19.05,1834.56,240,32.66,-0.22,-0.24,9.97,11:36:33,33.663025N,-114.015038W,1975.70,10.11,17
3903068,19.28,1825.79,231,32.64,-0.10,0.04,10.09,11:36:34,33.663040N,-114.015076W,1980.70,9.53,17
3904069,19.46,1819.82,226,32.69,-0.11,0.03,10.05,11:36:35,33.663059N,-114.015114W,1985.60,9.10,17
