time_since_start,bme_temp,bme_alt,uv,ism_temp,acc_x,acc_y,acc_z,gps_time,latitude,longitude,gps_alt,speed,sats
7208370,-14.90,17716.09,369,-12.88,0.20,0.00,9.70,12:31:39,33.991669N,-113.469353W,18549.10,47.47,17
7209371,-15.02,17735.83,338,-12.88,-0.63,-0.27,9.81,12:31:40,33.991737N,-113.469116W,18553.60,49.40,17
7210372,-15.14,17749.76,313,-12.86,-0.50,0.37,9.61,12:31:41,33.991810N,-113.468903W,18558.70,49.67,17
7211373,-15.22,17762.98,316,-12.89,-0.38,0.34,9.60,12:31:42,33.991898N,-113.468697W,18563.10,48.65,17
7212374,-15.24,17774.02,375,-12.89,-0.44,-0.54,9.91,12:31:43,33.991974N,-113.468491W,18567.00,47.51,17
7213375,-15.24,17850.36,340,-12.88,-0.59,-0.24,9.99,12:31:44,33.992058N,-113.468300W,18571.60,45.95,17
7214376,-15.23,17896.77,351,-12.88,-0.49,-0.30,10.02,12:31:45,33.992126N,-113.468094W,18574.40,44.50,17
7215377,-15.23,17883.26,345,-12.88,-0.59,-0.52,10.11,12:31:46,33.992191N,-113.467903W,18576.80,44.29,17
7216378,-15.25,17886.26,355,-12.88,-0.65,-0.36,10.24,12:31:47,33.992264N,-113.467712W,18580.40,45.38,17
7217379,-15.29,17937.48,379,-12.87,-0.05,-0.39,10.23,12:31:48,33.992340N,-113.467491W,18583.60,44.18,17
7218380,-15.31,17917.85,346,-12.89,0.36,-0.12,10.28,12:31:49,33.992416N,-113.467300W,18586.90,45.43,17
7219381,-15.32,17895.27,372,-12.89,-0.23,-0.07,10.30,12:31:50,33.992485N,-113.467125W,18591.00,44.20,17
7220382,-15.33,17962.49,377,-12.89,-0.42,-0.21,10.20,12:31:51,33.992558N,-113.466934W,18594.50,44.62,17
7221383,-15.33,17863.05,369,-12.89,-0.20,-0.07,10.07,12:31:52,33.992626N,-113.466751W,18598.20,41.27,17
7222384,-15.31,17749.76,336,-12.89,-0.55,-0.09,10.07,12:31:53,33.992702N,-113.466576W,18601.80,40.15,17
7223385,-15.04,17769.60,304,-12.89,0.03,-0.72,9.99,12:31:54,33.992775N,-113.466393W,18605.30,40.39,17
7224386,-15.09,17829.52,367,-12.90,-0.52,-0.43,10.06,12:31:55,33.992859N,-113.466217W,18609.70,41.46,17
7225387,-15.13,17868.29,323,-12.89,0.06,-0.16,10.21,12:31:56,33.992939N,-113.466034W,18613.70,42.07,17
7226388,-15.15,17869.04,332,-12.88,0.18,-0.02,10.22,12:31:57,33.993011N,-113.465866W,18617.20,41.68,17
7227389,-15.21,17911.06,331,-12.90,-0.15,-0.27,10.35,12:31:58,33.993092N,-113.465706W,18621.30,41.82,17
7228390,-15.25,17928.41,328,-12.89,-0.37,-0.26,10.29,12:31:59,33.993172N,-113.465538W,18626.00,40.33,17
7229391,-15.26,17912.57,298,-12.90,-0.24,-0.13,10.07,12:32:0,33.993244N,-113.465370W,18629.90,39.04,17
7230392,-15.28,17899.03,270,-12.89,-0.45,-0.38,9.87,12:32:1,33.993313N,-113.465202W,18633.70,38.36,17
7231393,-15.30,17888.51,302,-12.89,0.26,-0.55,9.77,12:32:2,33.993385N,-113.465027W,18638.40,39.57,17
7232394,-15.31,17854.84,11,-12.90,-0.14,0.02,9.70,12:32:3,33.993458N,-113.464844W,18641.80,38.70,17
7233395,-15.03,17839.93,350,-12.91,-0.59,-0.33,10.02,12:32:4,33.993557N,-113.464653W,18645.80,43.23,17
7234396,-15.11,17749.76,338,-12.90,-0.59,-0.46,10.27,12:32:5,33.993656N,-113.464462W,18649.00,44.24,17
7235397,-14.76,17694.23,369,-12.90,-0.27,-0.36,10.30,12:32:6,33.993744N,-113.464279W,18652.60,45.22,17
7236398,-14.48,17729.24,371,-12.90,-0.11,-0.47,10.36,12:32:7,33.993839N,-113.464088W,18656.90,44.77,17
7237399,-14.70,17813.93,370,-12.91,-0.13,-0.43,10.33,12:32:8,33.993931N,-113.463921W,18661.00,45.82,17
7238400,-14.86,17870.53,353,-12.91,-0.44,-0.06,10.06,12:32:9,33.994026N,-113.463760W,18664.70,41.95,17
7239401,-14.96,17905.79,343,-12.93,-0.77,-0.45,9.86,12:32:10,33.994114N,-113.463577W,18669.20,42.00,17
7240402,-15.01,17906.55,328,-12.91,-0.40,-0.46,9.75,12:32:11,33.994213N,-113.463425W,18674.00,42.48,17
7241403,-15.14,17906.55,326,-12.91,-0.11,-0.25,9.94,12:32:12,33.994312N,-113.463242W,18677.50,43.51,17
7242404,-15.24,17902.79,342,-12.92,-0.18,-0.24,10.33,12:32:13,33.994411N,-113.463066W,18680.70,44.65,17
7243405,-15.27,17899.03,369,-12.93,-0.45,-0.24,10.40,12:32:14,33.994511N,-113.462875W,18684.10,45.64,17
7244406,-15.19,17868.29,377,-12.94,-0.74,-0.51,10.37,12:32:15,33.994617N,-113.462692W,18687.60,44.99,17
7245407,-14.90,17878.02,370,-12.94,-0.39,-0.24,10.11,12:32:16,33.994713N,-113.462524W,18691.80,43.09,17
7246408,-14.92,17887.01,364,-12.92,0.11,-0.13,9.80,12:32:17,33.994793N,-113.462364W,18696.70,41.76,17
7247409,-14.95,17893.77,370,-12.95,0.07,-0.43,9.83,12:32:18,33.994888N,-113.462196W,18700.40,41.09,17
7248410,-14.96,17899.03,366,-12.91,-0.54,-0.27,9.92,12:32:19,33.994961N,-113.462044W,18704.50,39.86,17
7249411,-14.95,17885.51,367,-12.91,-0.46,-0.47,10.07,12:32:20,33.995033N,-113.461876W,18708.30,39.12,17
7250412,-14.71,17934.45,356,-12.94,-0.74,-0.26,10.13,12:32:21,33.995121N,-113.461708W,18710.80,39.62,17
7251413,-14.74,17953.38,357,-12.94,-0.49,-0.52,10.21,12:32:22,33.995197N,-113.461540W,18714.80,39.81,17
7252414,-14.74,17895.27,365,-12.91,-0.37,-0.64,10.27,12:32:23,33.995277N,-113.461372W,18718.50,38.98,17
7253415,-14.35,17905.04,323,-12.93,-0.37,-0.23,10.18,12:32:24,33.995350N,-113.461212W,18722.00,38.93,17
7254416,-14.43,17906.55,331,-12.92,0.28,-0.15,10.03,12:32:25,33.995422N,-113.461044W,18726.10,39.38,17
7255417,-14.34,17873.52,328,-12.95,-0.12,0.00,9.97,12:32:26,33.995510N,-113.460861W,18730.50,40.39,17
7256418,-14.06,17891.52,294,-12.96,-0.50,-0.43,9.91,12:32:27,33.995586N,-113.460701W,18734.00,40.66,17
7257419,-14.17,17881.76,341,-12.95,-0.37,-0.30,9.93,12:32:28,33.995659N,-113.460518W,18737.40,41.24,17
7258420,-13.99,17786.55,416,-12.95,-0.59,-0.11,9.98,12:32:29,33.995743N,-113.460342W,18741.20,42.59,17
7259421,-14.08,17739.49,369,-12.93,-0.29,-0.35,10.05,12:32:30,33.995827N,-113.460144W,18744.20,42.93,17
7260422,-13.75,17791.72,347,-12.91,-0.74,-0.27,10.12,12:32:31,33.995899N,-113.459969W,18747.20,42.24,17
7261423,-13.90,17826.54,361,-12.98,-0.11,-0.48,10.24,12:32:32,33.995968N,-113.459801W,18750.90,41.37,17
7262424,-13.89,17727.78,395,-13.01,-0.48,0.26,10.30,12:32:33,33.996048N,-113.459610W,18754.40,42.24,17
7263425,-13.90,17722.66,331,-12.98,-0.27,-0.20,10.32,12:32:34,33.996128N,-113.459427W,18757.30,42.44,17
7264426,-13.55,17781.39,323,-13.01,-0.38,-0.19,10.23,12:32:35,33.996193N,-113.459236W,18761.10,42.24,17
7265427,-13.70,17828.77,313,-13.00,-0.21,-0.21,10.11,12:32:36,33.996258N,-113.459068W,18765.30,42.32,17
7266428,-13.80,17871.28,340,-13.02,-0.41,-0.51,9.93,12:32:37,33.996342N,-113.458878W,18769.50,43.04,17
7267429,-13.87,17833.23,131,-12.99,-0.09,-0.73,9.86,12:32:38,33.996422N,-113.458687W,18773.80,42.45,17
7268430,-13.94,17837.70,361,-12.99,-0.45,-0.65,9.94,12:32:39,33.996498N,-113.458511W,18777.50,41.18,17
7269432,-13.66,17874.27,331,-13.00,-0.27,-0.18,10.02,12:32:40,33.996574N,-113.458344W,18781.00,40.34,17
7270432,-13.74,17899.78,289,-12.98,0.16,-0.55,9.91,12:32:41,33.996651N,-113.458160W,18784.20,40.34,17
7271433,-13.80,17927.65,318,-12.99,-0.29,-0.37,9.98,12:32:42,33.996731N,-113.458008W,18788.00,40.62,17
7272434,-13.84,17948.08,336,-13.01,-0.08,-0.38,10.29,12:32:43,33.996826N,-113.457840W,18791.60,42.06,17
7273435,-13.94,17997.51,376,-13.03,-0.44,-0.53,10.42,12:32:44,33.996914N,-113.457664W,18794.50,41.36,17
7274436,-14.04,18079.00,395,-13.05,-0.27,-0.37,10.35,12:32:45,33.997009N,-113.457481W,18797.50,43.78,17
7275437,-14.07,17934.45,390,-12.99,0.13,-0.58,10.24,12:32:46,33.997097N,-113.457306W,18801.50,43.85,17
7276438,-13.76,17845.89,396,-12.97,0.16,-0.53,10.20,12:32:47,33.997185N,-113.457115W,18805.00,44.67,17
7277440,-13.45,17744.62,370,-13.05,-0.17,0.17,10.27,12:32:48,33.997269N,-113.456924W,18808.20,46.10,17
7278440,-13.38,17765.92,331,-13.04,-0.23,0.11,10.29,12:32:49,33.997349N,-113.456718W,18812.50,46.98,17
7279441,-13.14,17828.77,269,-13.07,-0.57,-0.23,10.31,12:32:50,33.997433N,-113.456497W,18816.50,47.73,17
7280442,-13.28,17878.02,353,-13.04,-0.33,0.00,10.28,12:32:51,33.997509N,-113.456284W,18820.60,49.02,17
7281443,-13.41,17911.82,298,-13.02,0.02,-0.27,10.14,12:32:52,33.997593N,-113.456078W,18825.60,49.01,17
7282444,-13.51,17941.26,284,-13.02,-0.15,-0.14,9.97,12:32:53,33.997684N,-113.455872W,18830.40,47.85,17
7283445,-13.58,17962.49,308,-13.06,-0.66,0.36,9.90,12:32:54,33.997780N,-113.455696W,18835.40,48.80,17
7284446,-13.62,17981.50,358,-13.11,-0.47,0.03,9.92,12:32:55,33.997868N,-113.455490W,18839.70,46.07,17
7285447,-13.65,18001.33,351,-13.14,-0.56,-0.49,10.05,12:32:56,33.997971N,-113.455299W,18845.20,46.04,17
7286448,-13.69,18051.97,333,-13.08,-0.46,-0.08,10.23,12:32:57,33.998062N,-113.455101W,18849.30,46.12,17
7287449,-13.72,18053.51,311,-13.10,-0.39,-0.21,10.24,12:32:58,33.998158N,-113.454910W,18853.80,46.12,17
7288450,-13.78,18059.68,346,-13.12,-0.44,-0.60,10.21,12:32:59,33.998257N,-113.454704W,18857.80,50.37,17
7289451,-13.87,18105.36,365,-13.07,-0.82,-0.46,10.06,12:33:0,33.998356N,-113.454491W,18862.40,51.77,17
7290452,-13.94,18099.92,395,-13.05,0.08,-0.65,9.99,12:33:1,33.998451N,-113.454262W,18866.30,51.45,17
7291453,-13.98,18096.04,364,-13.10,0.08,0.36,10.05,12:33:2,33.998550N,-113.454041W,18871.40,51.06,17
7292454,-14.00,18168.63,385,-13.06,-0.43,-0.16,10.09,12:33:3,33.998646N,-113.453827W,18876.20,50.87,17
7293455,-14.00,17996.75,370,-13.10,-0.23,0.08,10.14,12:33:4,33.998730N,-113.453590W,18880.10,49.70,17
7294456,-13.79,17938.99,316,-13.13,-0.41,-0.49,10.01,12:33:5,33.998817N,-113.453377W,18884.60,48.53,17
7295457,-13.36,17968.56,330,-13.13,-0.41,-0.21,9.84,12:33:6,33.998901N,-113.453171W,18889.30,49.24,17
7296458,-13.46,18018.93,331,-13.12,-0.65,-0.91,9.74,12:33:7,33.998981N,-113.452957W,18894.10,50.15,17
7297459,-13.56,17909.56,18,-13.10,-0.67,0.08,9.63,12:33:8,33.999081N,-113.452736W,18898.30,50.77,17
7298460,-13.59,17808.74,340,-13.10,-0.15,-0.69,9.59,12:33:9,33.999168N,-113.452507W,18901.90,50.43,17
7299461,-13.44,17757.83,395,-13.14,0.18,-0.98,9.81,12:33:10,33.999256N,-113.452286W,18904.50,51.07,17
7300462,-13.15,17783.60,391,-13.13,0.08,0.02,10.16,12:33:11,33.999352N,-113.452057W,18907.20,51.73,17
7301463,-13.22,17915.58,338,-13.20,-0.72,-0.39,10.41,12:33:12,33.999435N,-113.451843W,18909.90,51.47,17
7302464,-13.26,17982.26,352,-13.18,-0.10,-0.65,10.42,12:33:13,33.999512N,-113.451637W,18913.50,51.73,17
7303465,-13.30,18009.74,247,-13.14,-0.17,-0.22,10.44,12:33:14,33.999599N,-113.451408W,18916.80,52.91,17
7304466,-13.37,18029.67,321,-13.17,0.02,-0.55,10.64,12:33:15,33.999683N,-113.451149W,18919.50,54.43,17
7305467,-13.40,18045.81,377,-13.19,-0.29,-0.46,10.59,12:33:16,33.999783N,-113.450920W,18923.40,54.37,17
7306468,-13.41,18028.14,394,-13.15,-0.78,-0.91,10.26,12:33:17,33.999870N,-113.450691W,18928.60,54.45,17
7307469,-13.15,18020.47,338,-13.14,-0.22,-0.83,9.93,12:33:18,33.999973N,-113.450447W,18933.60,54.81,17
7308470,-12.93,17969.32,10,-13.15,-0.18,0.00,9.82,12:33:19,34.000072N,-113.450203W,18938.40,55.25,17
7309471,-12.63,17991.41,309,-13.19,-1.24,-0.14,9.89,12:33:20,34.000175N,-113.449974W,18943.60,55.20,17
7310472,-12.80,18006.69,341,-13.18,-0.71,-0.34,10.06,12:33:21,34.000286N,-113.449738W,18947.70,55.88,17
7311473,-12.93,18043.50,311,-13.20,-0.38,-0.45,10.25,12:33:22,34.000393N,-113.449501W,18952.10,57.17,17
7312474,-13.04,18063.54,319,-13.20,-0.64,-0.31,10.44,12:33:23,34.000515N,-113.449265W,18956.40,58.18,17
7313475,-13.11,18080.54,411,-13.21,-0.42,-0.36,10.41,12:33:24,34.000629N,-113.449036W,18961.40,58.11,17
7314476,-13.15,18103.03,389,-13.20,-0.52,-0.33,10.29,12:33:25,34.000755N,-113.448784W,18966.40,57.42,17
7315477,-13.18,18101.48,374,-13.17,-0.42,-0.64,10.06,12:33:26,34.000862N,-113.448547W,18970.80,56.74,17
7316478,-13.12,18060.45,351,-13.17,-0.44,-0.36,9.74,12:33:27,34.000980N,-113.448296W,18976.10,55.42,17
7317479,-13.12,18081.32,299,-13.19,-0.08,-0.07,9.65,12:33:28,34.001083N,-113.448074W,18982.00,53.75,17
7318480,-13.14,17965.52,21,-13.20,-0.61,-0.38,9.66,12:33:29,34.001163N,-113.447830W,18986.40,53.77,17
7319481,-12.82,18010.51,386,-13.22,0.00,0.13,9.67,12:33:30,34.001263N,-113.447594W,18989.80,53.59,17
7320482,-12.88,18131.06,321,-13.24,-0.48,-0.15,9.60,12:33:31,34.001358N,-113.447372W,18994.20,53.37,17
7321483,-12.90,18145.12,376,-13.27,-0.45,-0.18,10.18,12:33:32,34.001446N,-113.447144W,18998.00,53.66,17
7322484,-12.93,18155.30,343,-13.24,-0.76,-0.02,10.43,12:33:33,34.001530N,-113.446915W,19001.80,54.80,17
7323485,-13.01,18163.14,318,-13.24,-0.43,-0.53,10.49,12:33:34,34.001606N,-113.446655W,19004.90,55.77,17
7324486,-13.06,18162.35,299,-13.21,0.26,-0.33,10.56,12:33:35,34.001694N,-113.446411W,19008.80,55.79,17
7325487,-13.08,18167.06,293,-13.22,-0.77,0.03,10.39,12:33:36,34.001766N,-113.446159W,19012.40,55.43,17
7326488,-13.08,18170.99,292,-13.22,-0.39,-0.53,10.19,12:33:37,34.001858N,-113.445900W,19017.50,55.39,17
7327489,-13.04,18174.91,284,-13.26,-0.09,-0.33,9.87,12:33:38,34.001953N,-113.445671W,19022.80,55.37,17
7328490,-13.03,18159.21,335,-13.25,-0.31,0.11,9.65,12:33:39,34.002056N,-113.445427W,19028.10,55.59,17
7329491,-12.78,18164.71,335,-13.29,-0.42,-0.46,9.80,12:33:40,34.002155N,-113.445168W,19032.10,56.51,17
7330492,-12.82,18174.13,318,-13.27,-0.33,-0.65,9.92,12:33:41,34.002254N,-113.444939W,19035.80,58.25,17
7331493,-12.85,18242.08,348,-13.27,-0.54,-0.22,9.96,12:33:42,34.002373N,-113.444687W,19040.00,59.51,17
7332494,-12.88,18277.15,401,-13.26,-0.51,-0.70,9.95,12:33:43,34.002472N,-113.444427W,19044.10,59.83,17
7333495,-12.88,18256.40,314,-13.26,-0.67,-0.61,10.05,12:33:44,34.002590N,-113.444160W,19047.00,60.06,17
7334496,-12.88,18357.59,411,-13.31,-0.14,-0.53,10.14,12:33:45,34.002701N,-113.443901W,19050.10,59.98,17
7335497,-12.86,18313.21,326,-13.32,-0.08,-0.24,10.15,12:33:46,34.002804N,-113.443649W,19053.60,59.71,17
7336498,-12.72,18288.34,355,-13.32,-0.17,-0.30,10.16,12:33:47,34.002899N,-113.443390W,19057.60,59.07,17
7337499,-12.72,18368.12,365,-13.27,-0.37,-0.13,10.12,12:33:48,34.003017N,-113.443146W,19061.70,59.92,17
7338500,-12.70,18371.37,372,-13.32,-0.31,0.20,10.19,12:33:49,34.003113N,-113.442856W,19064.70,61.06,17
7339501,-12.70,18213.55,297,-13.24,-0.46,0.12,10.25,12:33:50,34.003212N,-113.442596W,19068.10,61.50,17
7340502,-12.69,18214.34,331,-13.29,-0.62,-0.17,10.27,12:33:51,34.003304N,-113.442314W,19072.20,60.86,17
7341503,-12.63,18216.71,306,-13.32,-0.18,0.23,10.16,12:33:52,34.003391N,-113.442062W,19076.10,59.61,17
7342504,-12.61,18222.25,340,-13.32,-0.16,-0.04,10.06,12:33:53,34.003490N,-113.441803W,19080.60,57.99,17
7343505,-12.59,18227.80,356,-13.37,-0.22,-0.20,10.05,12:33:54,34.003586N,-113.441551W,19085.20,56.02,17
7344506,-12.56,18304.38,356,-13.35,-0.33,-0.07,10.02,12:33:55,34.003670N,-113.441307W,19089.50,54.70,17
7345507,-12.58,18150.60,24,-13.32,-0.23,0.07,9.88,12:33:56,34.003750N,-113.441048W,19093.40,54.90,17
7346508,-12.53,18085.96,364,-13.39,0.09,0.06,9.87,12:33:57,34.003822N,-113.440796W,19096.50,55.54,17
7347509,-12.05,18087.51,326,-13.27,-0.29,0.02,10.02,12:33:58,34.003902N,-113.440536W,19099.80,56.19,17
7348510,-11.79,18124.82,335,-13.34,-0.49,-0.10,10.00,12:33:59,34.003983N,-113.440285W,19103.90,55.81,17
7349511,-11.91,18152.16,327,-13.30,-0.50,0.07,10.02,12:34:0,34.004063N,-113.440041W,19107.30,55.19,17
7350512,-12.00,18176.49,348,-13.38,-0.58,-0.00,10.22,12:34:1,34.004147N,-113.439796W,19110.40,55.70,17
7351513,-12.07,18195.38,346,-13.30,-0.38,-0.07,10.46,12:34:2,34.004230N,-113.439575W,19113.30,55.44,17
7352514,-12.14,18212.76,355,-13.38,-0.47,-0.18,10.48,12:34:3,34.004318N,-113.439346W,19117.00,50.85,17
7353515,-12.20,18243.67,316,-13.38,-0.71,-0.22,10.33,12:34:4,34.004417N,-113.439133W,19121.50,51.33,17
7354516,-12.26,18253.22,328,-13.36,-0.63,-0.57,10.25,12:34:5,34.004509N,-113.438911W,19125.00,51.45,17
7355517,-12.38,18256.40,259,-13.38,-0.13,-0.30,10.32,12:34:6,34.004601N,-113.438667W,19129.70,53.72,17
7356518,-12.44,18258.00,311,-13.38,-0.19,-0.14,10.38,12:34:7,34.004692N,-113.438438W,19134.40,54.85,17
7357519,-12.48,18265.17,289,-13.35,-0.60,0.10,10.35,12:34:8,34.004795N,-113.438210W,19139.70,54.90,17
7358520,-12.52,18271.55,336,-13.39,-0.56,-0.02,10.48,12:34:9,34.004906N,-113.437965W,19145.00,54.02,17
7359521,-12.59,18274.75,346,-13.38,-0.44,0.22,10.61,12:34:10,34.005013N,-113.437744W,19150.10,52.59,17
7360522,-12.65,18280.34,348,-13.37,-0.67,-0.29,10.61,12:34:11,34.005135N,-113.437553W,19156.10,51.92,17
7361523,-12.70,18300.37,357,-13.36,-0.78,-0.40,10.45,12:34:12,34.005249N,-113.437340W,19163.30,52.00,17
7362524,-12.75,18382.74,361,-13.40,-0.61,0.16,10.34,12:34:13,34.005371N,-113.437149W,19170.00,51.66,17
7363525,-12.79,18340.61,337,-13.39,-0.31,-0.27,10.33,12:34:14,34.005478N,-113.436890W,19175.80,54.03,17
7364526,-12.82,18291.55,130,-13.39,-0.73,-0.33,10.25,12:34:15,34.005592N,-113.436668W,19182.80,55.24,17
7365527,-12.87,18267.56,330,-13.40,-0.71,-0.36,10.13,12:34:16,34.005714N,-113.436440W,19190.10,55.32,17
7366528,-12.98,18241.29,348,-13.35,-0.60,-0.41,10.16,12:34:17,34.005848N,-113.436226W,19197.50,54.93,17
7367529,-13.07,18274.75,346,-13.41,-0.18,-0.17,10.13,12:34:18,34.005981N,-113.436020W,19205.10,53.84,17
7368530,-13.13,18289.95,330,-13.39,-0.56,-0.33,9.75,12:34:19,34.006115N,-113.435837W,19213.70,53.19,17
7369531,-13.18,18302.77,307,-13.36,-0.42,-0.48,8.93,12:34:20,34.006248N,-113.435638W,19221.10,52.42,17
7370532,-13.26,18267.56,372,-13.40,0.31,-0.59,8.26,12:34:21,34.006386N,-113.435440W,19227.30,52.45,17
7371533,-12.96,18312.41,341,-13.39,-0.29,-0.86,9.49,12:34:22,34.006527N,-113.435249W,19233.00,51.93,17
7372534,-13.04,18348.69,353,-13.38,-0.70,-0.75,9.82,12:34:23,34.006672N,-113.435074W,19237.70,52.76,17
7373535,-13.09,18406.37,362,-13.39,0.03,-0.63,10.26,12:34:24,34.006813N,-113.434883W,19241.00,52.52,17
7374536,-13.09,18394.95,345,-13.39,-1.33,-0.82,10.54,12:34:25,34.006958N,-113.434700W,19244.70,52.14,17
7375537,-13.11,18392.50,369,-13.41,-0.22,-0.03,10.62,12:34:26,34.007092N,-113.434509W,19248.70,50.90,17
7376538,-13.13,18392.50,312,-13.39,0.16,-0.53,10.57,12:34:27,34.007236N,-113.434341W,19254.00,50.37,17
7377539,-13.14,18386.81,361,-13.41,-0.16,-0.70,10.41,12:34:28,34.007362N,-113.434151W,19258.90,49.93,17
7378540,-13.16,18332.54,38,-13.40,0.04,-0.32,10.19,12:34:29,34.007484N,-113.433960W,19264.20,49.92,17
7379541,-12.84,18391.69,337,-13.40,-0.40,-0.70,9.99,12:34:30,34.007622N,-113.433777W,19269.20,49.94,17
7380542,-12.95,18391.69,337,-13.40,0.65,-0.28,9.70,12:34:31,34.007759N,-113.433601W,19275.00,49.71,17
7381543,-13.08,18297.96,384,-13.41,-0.16,-0.74,9.51,12:34:32,34.007889N,-113.433434W,19280.00,49.44,17
7382544,-12.74,18372.99,362,-13.41,0.03,0.26,9.78,12:34:33,34.008022N,-113.433243W,19284.50,47.34,17
7383545,-12.89,18381.11,308,-13.41,-0.03,-0.13,9.87,12:34:34,34.008152N,-113.433090W,19288.90,46.75,17
7384546,-13.02,18388.43,353,-13.41,-0.33,0.04,9.78,12:34:35,34.008274N,-113.432922W,19293.30,46.36,17
7385547,-13.12,18286.74,126,-13.41,0.08,0.05,9.82,12:34:36,34.008400N,-113.432739W,19297.80,46.44,17
7386548,-12.70,18174.13,399,-13.41,0.09,0.04,9.91,12:34:37,34.008526N,-113.432564W,19301.60,46.87,17
7387549,-12.74,18219.88,360,-13.41,-0.45,-0.93,9.97,12:34:38,34.008648N,-113.432396W,19304.60,46.18,17
7388550,-12.83,18230.97,382,-13.41,-0.81,-0.33,9.92,12:34:39,34.008774N,-113.432220W,19307.70,49.30,17
7389551,-12.89,18390.88,336,-13.41,0.22,0.33,10.13,12:34:40,34.008900N,-113.432037W,19311.00,48.84,17
7390552,-12.91,18403.92,358,-13.41,-0.73,0.30,10.30,12:34:41,34.009014N,-113.431862W,19314.60,48.48,17
7391553,-12.96,18417.80,323,-13.41,0.06,0.02,10.29,12:34:42,34.009125N,-113.431656W,19318.30,48.94,17
7392554,-13.00,18419.44,279,-13.41,0.03,-0.95,10.31,12:34:43,34.009243N,-113.431473W,19321.80,50.57,17
7393555,-13.02,18423.53,332,-13.41,0.42,-0.69,10.21,12:34:44,34.009350N,-113.431259W,19325.40,51.74,17
7394556,-13.04,18370.56,323,-13.42,-0.17,-0.45,10.26,12:34:45,34.009476N,-113.431038W,19329.70,53.07,17
7395557,-13.05,18431.72,353,-13.44,-0.10,-0.80,10.35,12:34:46,34.009605N,-113.430832W,19334.20,55.01,17
7396558,-13.07,18444.03,386,-13.41,0.11,-0.31,10.16,12:34:47,34.009739N,-113.430634W,19338.90,55.89,17
7397559,-13.11,18449.78,347,-13.43,-0.55,0.09,9.87,12:34:48,34.009872N,-113.430412W,19343.00,56.09,17
7398560,-13.17,18514.24,374,-13.43,0.34,0.33,9.64,12:34:49,34.010006N,-113.430206W,19347.60,54.29,17
7399561,-13.20,18511.75,346,-13.41,-0.54,-0.51,9.49,12:34:50,34.010139N,-113.429993W,19351.60,55.90,17
7400562,-13.20,18390.06,11,-13.43,-0.18,0.47,9.71,12:34:51,34.010269N,-113.429771W,19355.10,56.30,17
7401563,-12.90,18360.02,333,-13.41,-0.56,0.34,9.97,12:34:52,34.010406N,-113.429543W,19357.70,57.23,17
7402564,-12.94,18385.18,316,-13.43,-0.23,-0.24,10.17,12:34:53,34.010544N,-113.429321W,19360.90,58.13,17
7403565,-12.98,18404.73,325,-13.43,-0.08,0.37,10.26,12:34:54,34.010685N,-113.429108W,19364.00,59.41,17
7404566,-12.98,18419.44,375,-13.43,-0.06,-0.17,10.31,12:34:55,34.010830N,-113.428879W,19366.90,59.66,17
7405567,-12.95,18486.06,365,-13.49,0.30,-0.45,10.50,12:34:56,34.010971N,-113.428650W,19370.30,59.81,17
7406568,-12.92,18515.90,316,-13.44,-0.14,-0.27,10.50,12:34:57,34.011112N,-113.428429W,19373.50,57.07,17
7407569,-12.89,18503.45,332,-13.43,-0.01,-0.29,10.31,12:34:58,34.011261N,-113.428223W,19377.50,56.80,17
7408570,-12.88,18496.82,296,-13.45,0.40,-0.45,10.03,12:34:59,34.011410N,-113.427979W,19381.00,56.84,17
7409571,-12.87,18492.68,346,-13.45,0.10,-0.40,9.79,12:35:0,34.011551N,-113.427765W,19385.90,55.88,17
7410572,-12.83,18447.31,370,-13.47,-0.85,-0.57,9.84,12:35:1,34.011688N,-113.427559W,19390.60,55.60,17
7411573,-12.47,18377.86,371,-13.48,-0.97,-0.31,9.98,12:35:2,34.011826N,-113.427353W,19394.70,53.71,17
7412574,-12.07,18252.42,299,-13.45,-0.15,-0.30,10.05,12:35:3,34.011963N,-113.427147W,19398.20,52.91,17
7413575,-11.98,18293.15,366,-13.45,-0.48,0.18,10.14,12:35:4,34.012096N,-113.426956W,19402.00,51.56,17
7414576,-12.11,18293.95,317,-13.43,-0.67,-0.31,10.15,12:35:5,34.012238N,-113.426765W,19405.80,51.15,17
7415577,-11.82,18340.61,319,-13.45,-0.14,-0.01,10.09,12:35:6,34.012379N,-113.426582W,19409.50,52.05,17
7416578,-11.97,18364.88,360,-13.50,0.00,-0.28,10.06,12:35:7,34.012505N,-113.426392W,19413.30,53.57,17
7417579,-11.89,18286.74,357,-13.47,0.10,-0.38,10.09,12:35:8,34.012650N,-113.426186W,19416.80,54.20,17
7418580,-11.56,18285.94,352,-13.47,-0.81,-0.40,10.11,12:35:9,34.012791N,-113.425995W,19420.20,54.43,17
7419581,-11.36,18277.15,364,-13.46,-0.49,-0.44,10.13,12:35:10,34.012943N,-113.425789W,19424.10,54.80,17
7420582,-11.16,18250.04,355,-13.47,-0.09,-0.06,10.14,12:35:11,34.013084N,-113.425598W,19428.20,55.17,17
7421583,-10.96,18311.61,337,-13.46,-0.25,-0.35,10.03,12:35:12,34.013229N,-113.425392W,19431.70,55.08,17
7422584,-11.25,18403.92,357,-13.45,-0.01,-0.67,9.82,12:35:13,34.013374N,-113.425201W,19435.00,55.49,17
7423585,-11.48,18340.61,13,-13.47,-0.58,-0.11,9.89,12:35:14,34.013515N,-113.424995W,19438.70,57.35,17
7424586,-11.64,18303.57,360,-13.51,0.46,0.02,10.12,12:35:15,34.013668N,-113.424767W,19441.90,58.89,17
7425587,-11.31,18356.78,318,-13.49,-0.36,-0.24,10.18,12:35:16,34.013813N,-113.424538W,19445.50,58.46,17
7426588,-11.49,18477.79,358,-13.48,0.47,-0.46,10.34,12:35:17,34.013954N,-113.424316W,19449.10,57.76,17
7427589,-11.60,18462.12,410,-13.48,-0.36,-0.70,10.34,12:35:18,34.014103N,-113.424118W,19452.50,57.38,17
7428590,-11.70,18357.59,357,-13.49,0.28,0.13,10.41,12:35:19,34.014248N,-113.423897W,19455.70,58.14,17
7429591,-11.34,18360.83,365,-13.52,-0.54,-0.05,10.38,12:35:20,34.014389N,-113.423683W,19459.50,53.94,17
7430592,-11.13,18404.73,404,-13.52,0.11,0.18,10.27,12:35:21,34.014523N,-113.423485W,19463.80,53.11,17
7431593,-11.31,18439.92,376,-13.51,-0.57,-0.53,10.12,12:35:22,34.014645N,-113.423294W,19468.70,52.53,17
7432594,-11.43,18520.06,377,-13.45,-0.82,-0.09,10.08,12:35:23,34.014774N,-113.423088W,19473.80,51.68,17
7433595,-11.54,18537.55,416,-13.55,-0.02,-0.58,10.04,12:35:24,34.014900N,-113.422913W,19478.80,49.67,17
7434596,-11.61,18541.72,347,-13.52,-0.91,0.07,10.01,12:35:25,34.015026N,-113.422722W,19482.60,48.19,17
7435597,-11.59,18549.24,326,-13.51,-0.35,-0.36,10.19,12:35:26,34.015137N,-113.422539W,19487.30,46.86,17
7436598,-11.65,18600.43,338,-13.52,-0.62,-0.15,10.12,12:35:27,34.015263N,-113.422363W,19493.00,46.01,17
7437599,-11.71,18516.73,370,-13.52,-0.52,-0.34,10.01,12:35:28,34.015366N,-113.422180W,19497.30,45.50,17
7438600,-11.74,18530.05,384,-13.57,-0.10,-0.02,10.05,12:35:29,34.015476N,-113.422012W,19501.60,46.17,17
7439601,-11.74,18540.05,318,-13.56,-0.43,-0.64,10.16,12:35:30,34.015583N,-113.421822W,19505.80,46.50,17
7440602,-11.77,18550.91,361,-13.51,-0.72,-0.25,10.22,12:35:31,34.015697N,-113.421646W,19510.20,46.43,17
7441603,-11.80,18565.97,351,-13.53,0.23,-0.10,10.40,12:35:32,34.015808N,-113.421478W,19515.30,45.90,17
7442604,-11.84,18572.68,351,-13.52,-0.08,-0.21,10.49,12:35:33,34.015915N,-113.421303W,19520.30,45.45,17
7443605,-11.90,18578.55,314,-13.58,-0.62,-0.14,10.45,12:35:34,34.016022N,-113.421120W,19525.30,45.15,17
7444606,-11.91,18613.08,312,-13.54,-0.47,-0.32,10.43,12:35:35,34.016125N,-113.420944W,19531.10,45.53,17
7445607,-11.96,18571.84,345,-13.57,-0.67,-0.50,10.45,12:35:36,34.016235N,-113.420761W,19536.40,46.86,17
7446608,-11.99,18536.71,386,-13.58,-0.58,0.11,10.47,12:35:37,34.016357N,-113.420570W,19542.30,46.11,17
7447609,-12.00,18411.26,341,-13.57,0.25,0.03,10.43,12:35:38,34.016476N,-113.420380W,19548.80,49.78,17
7448610,-11.97,18408.81,367,-13.53,-0.20,-0.44,10.39,12:35:39,34.016602N,-113.420189W,19555.70,50.23,17
7449611,-11.67,18430.08,397,-13.55,-0.41,0.06,10.34,12:35:40,34.016720N,-113.419991W,19562.50,49.76,17
7450612,-11.53,18397.39,399,-13.55,-0.53,-0.16,10.08,12:35:41,34.016834N,-113.419792W,19570.30,48.13,17
7451613,-11.24,18455.54,387,-13.58,-0.64,-0.23,10.03,12:35:42,34.016937N,-113.419609W,19578.40,45.21,17
7452614,-11.44,18500.96,375,-13.63,-0.86,-0.24,10.06,12:35:43,34.017029N,-113.419441W,19586.50,42.71,17
7453615,-11.62,18441.56,367,-13.59,-0.37,0.02,9.99,12:35:44,34.017120N,-113.419273W,19593.90,41.67,17
7454616,-11.34,18334.15,396,-13.63,-0.18,0.25,9.85,12:35:45,34.017204N,-113.419113W,19601.60,40.39,17
7455617,-11.42,18540.05,366,-13.57,-0.18,0.01,9.34,12:35:46,34.017288N,-113.418945W,19608.20,39.58,17
7456618,-11.60,18651.21,328,-13.62,0.03,-0.25,8.88,12:35:47,34.017365N,-113.418777W,19615.30,39.88,17
7457619,-11.73,18658.86,361,-13.63,0.00,-0.43,8.84,12:35:48,34.017433N,-113.418610W,19621.70,40.91,17
7458620,-11.85,18659.71,408,-13.63,-0.33,-0.56,9.45,12:35:49,34.017490N,-113.418419W,19626.50,41.26,17
7459621,-11.94,18660.56,346,-13.61,-0.39,-0.93,10.05,12:35:50,34.017555N,-113.418228W,19630.30,41.22,17
7460622,-11.92,18655.46,335,-13.64,-0.23,-0.68,10.19,12:35:51,34.017609N,-113.418045W,19633.50,41.51,17
7461623,-11.92,18659.71,318,-13.60,0.40,-0.76,10.38,12:35:52,34.017673N,-113.417854W,19636.60,42.68,17
7462624,-11.95,18665.67,356,-13.68,0.14,-0.21,10.32,12:35:53,34.017735N,-113.417664W,19639.30,43.19,17
7463625,-11.96,18655.46,330,-13.62,-0.55,-0.75,10.19,12:35:54,34.017803N,-113.417473W,19642.40,42.96,17
7464626,-11.74,18570.16,364,-13.63,-0.61,-0.49,10.06,12:35:55,34.017883N,-113.417267W,19645.30,43.54,17
7465627,-11.34,18447.31,408,-13.66,-0.52,-0.20,9.89,12:35:56,34.017960N,-113.417091W,19649.20,44.01,17
7466628,-11.40,18510.09,364,-13.64,-0.08,0.05,9.92,12:35:57,34.018032N,-113.416885W,19652.70,43.45,17
7467629,-11.51,18558.44,342,-13.69,0.22,-0.31,10.00,12:35:58,34.018105N,-113.416702W,19656.60,42.78,17
7468630,-11.58,18568.49,341,-13.64,-0.73,-0.43,10.06,12:35:59,34.018181N,-113.416512W,19660.10,43.97,17
7469631,-11.63,18562.62,350,-13.73,-1.08,-0.18,10.19,12:36:0,34.018265N,-113.416321W,19663.40,45.67,17
7470632,-11.66,18602.96,348,-13.72,-0.68,-0.11,10.28,12:36:1,34.018341N,-113.416115W,19666.60,46.53,17
7471633,-11.68,18627.46,333,-13.66,-0.89,-0.08,10.28,12:36:2,34.018421N,-113.415939W,19670.20,47.11,17
7472634,-11.69,18562.62,158,-13.73,-0.72,-0.26,10.15,12:36:3,34.018513N,-113.415718W,19673.40,47.31,17
7473635,-11.27,18740.24,353,-13.69,-0.61,-0.53,9.95,12:36:4,34.018600N,-113.415512W,19677.40,48.92,17
7474636,-11.37,18734.21,403,-13.64,-0.82,-0.67,9.84,12:36:5,34.018692N,-113.415298W,19681.50,48.26,17
7475637,-11.44,18592.01,403,-13.66,0.00,-0.68,9.89,12:36:6,34.018761N,-113.415092W,19685.50,48.20,17
7476638,-11.12,18740.24,374,-13.58,-0.56,-0.44,10.02,12:36:7,34.018837N,-113.414871W,19688.60,48.55,17
7477639,-11.21,18740.24,346,-13.68,-0.38,-0.85,10.15,12:36:8,34.018906N,-113.414658W,19692.00,49.42,17
7478640,-11.31,18736.79,321,-13.73,-0.54,-0.26,10.23,12:36:9,34.018970N,-113.414429W,19695.80,49.21,17
7479641,-11.38,18733.35,331,-13.70,-0.53,0.19,10.27,12:36:10,34.019028N,-113.414192W,19698.70,49.17,17
7480642,-11.40,18730.76,338,-13.67,0.28,-0.10,10.26,12:36:11,34.019093N,-113.413979W,19701.80,49.22,17
7481643,-11.39,18716.14,377,-13.69,-0.13,-0.22,10.16,12:36:12,34.019161N,-113.413750W,19705.20,48.80,17
7482644,-11.19,18586.96,399,-13.69,0.15,-0.59,10.08,12:36:13,34.019234N,-113.413528W,19708.20,47.21,17
7483645,-10.84,18510.92,380,-13.70,-0.11,-0.63,9.96,12:36:14,34.019291N,-113.413315W,19711.90,46.09,17
7484646,-10.52,18521.72,335,-13.75,-0.30,0.16,9.91,12:36:15,34.019352N,-113.413094W,19715.30,46.05,17
7485647,-10.34,18577.72,330,-13.71,0.00,-0.06,9.87,12:36:16,34.019409N,-113.412888W,19719.00,45.33,17
7486648,-10.53,18619.00,326,-13.64,-0.54,-0.14,9.97,12:36:17,34.019455N,-113.412682W,19722.50,44.57,17
7487649,-10.65,18658.86,355,-13.75,0.07,-0.32,10.16,12:36:18,34.019505N,-113.412491W,19725.70,44.09,17
7488650,-10.77,18787.87,377,-13.72,-0.62,-0.50,10.28,12:36:19,34.019569N,-113.412285W,19729.30,44.46,17
7489651,-10.84,18619.84,401,-13.73,-0.08,-0.16,10.43,12:36:20,34.019630N,-113.412071W,19732.20,44.38,17
7490652,-10.61,18652.90,357,-13.75,-0.79,-0.97,10.44,12:36:21,34.019688N,-113.411880W,19735.60,43.97,17
7491653,-10.68,18803.54,408,-13.70,-0.10,-0.47,10.36,12:36:22,34.019737N,-113.411674W,19739.30,44.69,17
7492654,-10.75,18794.83,346,-13.73,-0.03,0.00,10.26,12:36:23,34.019798N,-113.411453W,19743.30,46.86,17
7493655,-10.74,18798.31,327,-13.71,-0.55,-0.77,10.14,12:36:24,34.019844N,-113.411240W,19747.80,48.11,17
7494656,-10.77,18683.59,308,-13.73,-0.04,-0.51,10.01,12:36:25,34.019890N,-113.411018W,19752.80,49.61,17
7495657,-10.46,18704.98,364,-13.73,-0.38,0.17,10.10,12:36:26,34.019947N,-113.410774W,19756.80,50.78,17
7496658,-10.56,18723.02,333,-13.71,0.03,-0.26,10.15,12:36:27,34.020008N,-113.410538W,19760.60,52.16,17
7497659,-10.63,18871.92,387,-13.69,-0.29,0.06,9.98,12:36:28,34.020065N,-113.410301W,19764.90,52.23,17
7498660,-10.67,18823.62,405,-13.73,-0.35,-0.96,10.01,12:36:29,34.020130N,-113.410057W,19769.50,52.29,17
7499661,-10.50,18815.75,348,-13.76,-0.16,-0.12,10.11,12:36:30,34.020191N,-113.409805W,19773.60,52.24,17
7500662,-10.56,18826.24,338,-13.76,-0.44,-0.59,10.25,12:36:31,34.020237N,-113.409576W,19778.60,52.95,17
7501663,-10.60,18878.97,397,-13.72,-0.32,0.06,10.19,12:36:32,34.020283N,-113.409332W,19782.90,53.29,17
7502664,-10.66,18752.33,340,-13.75,-0.14,-0.39,10.03,12:36:33,34.020325N,-113.409065W,19786.60,52.75,17
7503665,-10.23,18768.77,312,-13.77,-0.20,0.35,9.96,12:36:34,34.020367N,-113.408821W,19790.60,52.23,17
7504666,-10.34,18777.45,302,-13.76,-0.12,-0.50,9.88,12:36:35,34.020401N,-113.408577W,19794.90,51.05,17
7505667,-10.41,18863.99,358,-13.78,0.06,-0.18,9.73,12:36:36,34.020443N,-113.408348W,19799.50,48.66,17
7506668,-10.49,18834.13,394,-13.77,0.10,-0.76,9.86,12:36:37,34.020489N,-113.408112W,19803.20,45.99,17
7507669,-10.52,18660.56,374,-13.76,-0.73,-0.45,10.09,12:36:38,34.020546N,-113.407913W,19806.00,44.01,17
