time_since_start,bme_temp,bme_alt,uv,ism_temp,acc_x,acc_y,acc_z,gps_time,latitude,longitude,gps_alt,speed,sats
1502668,24.71,419.31,38,30.46,-8.64,4.52,0.01,10:56:33,33.664627N,-114.007439W,481.60,0.09,18
1503669,24.73,419.31,38,30.51,-8.64,4.52,0.01,10:56:34,33.664627N,-114.007439W,481.60,0.07,18
1504670,24.74,419.13,38,30.50,-8.64,4.54,0.01,10:56:35,33.664627N,-114.007439W,481.60,0.09,18
1505671,24.76,419.22,36,30.51,-8.63,4.52,0.01,10:56:36,33.664627N,-114.007439W,481.60,0.07,18
1506672,24.78,419.13,36,30.50,-8.65,4.52,0.00,10:56:37,33.664627N,-114.007439W,481.60,0.06,18
1507673,24.80,419.13,38,30.50,-8.64,4.52,0.00,10:56:38,33.664627N,-114.007439W,481.60,0.21,18
1508674,24.81,419.22,38,30.54,-8.65,4.52,0.00,10:56:39,33.664627N,-114.007439W,481.50,0.25,18
1509675,24.82,419.05,38,30.51,-8.65,4.51,0.00,10:56:40,33.664627N,-114.007439W,481.60,0.16,18
1510676,24.84,419.13,38,30.53,-8.66,4.52,0.01,10:56:41,33.664627N,-114.007439W,481.50,0.07,18
1511677,24.84,419.13,38,30.49,-8.64,4.52,0.01,10:56:42,33.664627N,-114.007439W,481.50,0.13,18
1512678,24.85,419.13,39,30.52,-8.64,4.52,0.01,10:56:43,33.664627N,-114.007439W,481.50,0.07,18
1513679,24.86,419.13,38,30.52,-8.65,4.52,0.00,10:56:44,33.664627N,-114.007439W,481.50,0.18,18
1514680,24.86,419.13,38,30.54,-8.65,4.52,0.00,10:56:45,33.664627N,-114.007439W,481.50,0.10,18
1515681,24.87,419.13,38,30.53,-8.64,4.53,0.00,10:56:46,33.664627N,-114.007439W,481.50,0.10,18
1516682,24.88,419.13,38,30.57,-8.63,4.53,0.00,10:56:47,33.664631N,-114.007439W,481.70,0.07,18
1517683,24.90,419.05,38,30.55,-8.66,4.52,0.01,10:56:48,33.664631N,-114.007439W,481.70,0.06,18
1518684,24.90,419.05,38,30.55,-8.65,4.52,0.01,10:56:49,33.664627N,-114.007439W,481.60,0.07,18
1519685,24.89,419.05,38,30.54,-8.64,4.53,0.02,10:56:50,33.664627N,-114.007439W,481.60,0.07,17
1520686,24.90,419.05,38,30.52,-8.64,4.52,0.01,10:56:51,33.664627N,-114.007439W,481.60,0.07,18
1521687,24.91,419.05,36,30.59,-8.64,4.52,-0.00,10:56:52,33.664627N,-114.007439W,481.50,0.05,18
1522688,24.92,419.13,36,30.57,-8.63,4.52,0.00,10:56:53,33.664627N,-114.007439W,481.50,0.10,18
1523689,24.92,419.13,36,30.56,-8.65,4.52,0.01,10:56:54,33.664627N,-114.007423W,481.50,0.14,18
1524690,24.93,419.13,35,30.55,-8.63,4.52,0.01,10:56:55,33.664627N,-114.007423W,481.50,0.15,17
1525691,24.94,419.13,36,30.55,-8.64,4.52,0.01,10:56:56,33.664627N,-114.007423W,481.50,0.16,18
1526692,24.95,419.22,35,30.57,-8.65,4.51,0.01,10:56:57,33.664627N,-114.007423W,481.50,0.06,18
1527693,24.95,419.13,35,30.56,-8.64,4.52,0.01,10:56:58,33.664627N,-114.007423W,481.50,0.08,18
1528694,24.95,419.13,35,30.57,-8.65,4.51,0.00,10:56:59,33.664627N,-114.007423W,481.50,0.08,18
1529695,24.95,419.05,35,30.63,-8.64,4.52,0.01,10:57:0,33.664627N,-114.007439W,481.50,0.10,18
1530696,24.94,419.13,35,30.59,-8.66,4.52,0.01,10:57:1,33.664627N,-114.007439W,481.50,0.13,18
1531697,24.94,419.22,35,30.54,-8.65,4.52,0.01,10:57:2,33.664627N,-114.007439W,481.50,0.05,18
1532698,24.94,419.22,35,30.59,-8.64,4.52,0.01,10:57:3,33.664627N,-114.007439W,481.50,0.01,18
1533699,24.94,419.31,35,30.57,-8.64,4.52,0.01,10:57:4,33.664627N,-114.007439W,481.50,0.08,18
1534700,24.95,419.31,35,30.55,-8.64,4.53,0.02,10:57:5,33.664627N,-114.007439W,481.50,0.12,18
1535701,24.96,419.22,35,30.65,-8.64,4.52,0.01,10:57:6,33.664627N,-114.007423W,481.50,0.02,18
1536702,24.96,419.22,36,30.57,-8.64,4.51,0.00,10:57:7,33.664627N,-114.007423W,481.50,0.07,18
1537703,24.97,419.22,36,30.65,-8.64,4.52,0.01,10:57:8,33.664627N,-114.007423W,481.50,0.12,18
1538704,24.97,419.22,38,30.62,-8.64,4.52,0.00,10:57:9,33.664627N,-114.007423W,481.50,0.01,18
1539705,24.98,419.22,38,30.58,-8.65,4.52,0.01,10:57:10,33.664627N,-114.007439W,481.50,0.15,17
1540706,24.99,419.13,38,30.66,-8.65,4.53,0.01,10:57:11,33.664627N,-114.007423W,481.50,0.15,17
1541707,25.00,419.22,38,30.62,-8.64,4.52,0.01,10:57:12,33.664627N,-114.007423W,481.50,0.09,18
1542708,25.00,419.31,36,30.67,-8.64,4.53,0.01,10:57:13,33.664627N,-114.007439W,481.50,0.10,18
1543709,25.01,419.39,36,30.61,-8.64,4.52,0.01,10:57:14,33.664627N,-114.007423W,481.50,0.16,17
1544710,25.02,419.39,35,30.66,-8.65,4.51,0.01,10:57:16,33.664623N,-114.007439W,481.50,0.07,17
1545711,25.03,419.31,35,30.62,-8.65,4.53,0.01,10:57:16,33.664623N,-114.007439W,481.50,0.25,17
1546712,25.03,419.31,36,30.66,-8.64,4.52,0.00,10:57:17,33.664623N,-114.007439W,481.50,0.14,18
1547713,25.04,419.31,35,30.65,-8.64,4.52,0.01,10:57:18,33.664623N,-114.007439W,481.50,0.06,17
1548714,25.05,419.31,35,30.62,-8.64,4.52,0.01,10:57:19,33.664623N,-114.007439W,481.40,0.07,18
1549715,25.07,419.22,35,30.62,-8.65,4.52,0.01,10:57:20,33.664623N,-114.007439W,481.50,0.07,18
1550716,25.09,419.22,36,30.65,-8.64,4.52,0.00,10:57:21,33.664623N,-114.007439W,481.60,0.05,18
1551717,25.10,419.22,36,30.64,-8.64,4.52,0.01,10:57:23,33.664623N,-114.007439W,481.60,0.03,17
1552718,25.11,419.13,36,30.62,-8.75,4.46,0.09,10:57:23,33.664623N,-114.007439W,481.60,0.12,17
1553719,25.12,419.05,35,30.62,-8.65,4.52,0.01,10:57:24,33.664623N,-114.007439W,481.60,0.08,18
1554720,25.13,419.05,35,30.63,-8.65,4.51,0.02,10:57:25,33.664627N,-114.007439W,481.60,0.08,18
1555721,25.16,418.96,35,30.63,-8.65,4.51,0.01,10:57:26,33.664627N,-114.007439W,481.60,0.07,18
1556722,25.16,418.96,35,30.66,-8.64,4.51,0.01,10:57:28,33.664627N,-114.007439W,481.60,0.07,18
1557723,25.16,418.96,35,30.65,-8.64,4.51,0.01,10:57:29,33.664627N,-114.007439W,481.50,0.06,18
1558724,25.15,418.96,35,30.64,-8.65,4.51,0.02,10:57:30,33.664627N,-114.007439W,481.50,0.03,18
1559725,25.15,418.87,35,30.62,-8.63,4.52,0.02,10:57:30,33.664627N,-114.007439W,481.50,0.03,18
1560726,25.16,418.96,36,30.66,-8.64,4.51,0.02,10:57:31,33.664627N,-114.007439W,481.50,0.18,18
1561727,25.17,418.96,35,30.66,-8.65,4.52,0.01,10:57:33,33.664627N,-114.007439W,481.70,0.09,18
1562728,25.19,418.96,35,30.64,-8.65,4.50,0.02,10:57:34,33.664627N,-114.007439W,481.80,0.07,18
1563729,25.20,418.96,35,30.66,-8.64,4.52,0.02,10:57:35,33.664627N,-114.007439W,481.90,0.05,18
1564730,25.20,418.96,35,30.67,-8.65,4.51,0.02,10:57:36,33.664627N,-114.007439W,482.00,0.05,18
1565731,25.21,418.96,36,30.66,-8.65,4.52,0.01,10:57:37,33.664627N,-114.007439W,482.00,0.05,18
1566732,25.23,419.05,35,30.68,-8.65,4.50,0.01,10:57:38,33.664631N,-114.007439W,482.10,0.05,18
1567733,25.25,419.05,36,30.66,-8.64,4.51,0.01,10:57:39,33.664631N,-114.007439W,482.20,0.02,18
1568734,25.27,419.13,35,30.64,-8.65,4.51,0.00,10:57:40,33.664631N,-114.007439W,482.30,0.01,18
1569735,25.28,419.31,35,30.68,-8.65,4.51,0.01,10:57:41,33.664631N,-114.007439W,482.30,0.02,18
1570736,25.28,419.31,35,30.66,-8.65,4.51,0.02,10:57:41,33.664631N,-114.007439W,482.30,0.17,18
1571737,25.29,419.31,35,30.70,-8.64,4.51,0.01,10:57:42,33.664627N,-114.007439W,482.30,0.14,18
1572738,25.30,419.31,35,30.67,-8.65,4.51,0.01,10:57:44,33.664627N,-114.007439W,482.40,0.16,18
1573739,25.31,419.39,35,30.66,-8.65,4.52,0.01,10:57:45,33.664627N,-114.007439W,482.40,0.09,18
1574740,25.33,419.39,35,30.67,-8.66,4.52,0.02,10:57:46,33.664627N,-114.007439W,482.40,0.08,18
1575741,25.34,419.48,35,30.68,-8.65,4.51,0.01,10:57:47,33.664627N,-114.007439W,482.50,0.15,18
1576742,25.36,419.48,36,30.69,-8.65,4.52,0.02,10:57:48,33.664627N,-114.007439W,482.60,0.07,18
1577743,25.37,419.57,35,30.69,-8.64,4.51,0.01,10:57:49,33.664627N,-114.007439W,482.70,0.05,18
1578744,25.39,419.57,35,30.69,-8.66,4.51,0.01,10:57:50,33.664627N,-114.007439W,482.80,0.03,18
1579745,25.40,419.57,38,30.67,-8.36,2.98,-3.69,10:57:51,33.664627N,-114.007439W,482.90,0.03,18
1580746,25.42,419.83,44,30.68,-8.30,4.81,0.36,10:57:52,33.664631N,-114.007439W,482.90,0.35,18
1581747,25.41,419.91,43,30.68,-9.76,2.94,1.13,10:57:53,33.664631N,-114.007439W,482.90,0.62,18
1582748,25.39,420.09,44,30.70,-9.05,4.08,1.34,10:57:54,33.664631N,-114.007439W,482.90,0.14,18
1583749,25.37,420.17,45,30.70,-8.59,4.18,1.16,10:57:55,33.664631N,-114.007439W,482.90,0.06,17
1584750,25.36,420.35,44,30.68,-8.69,3.84,1.31,10:57:56,33.664631N,-114.007439W,482.90,0.03,18
1585751,25.35,420.35,44,30.70,-8.95,3.93,1.12,10:57:57,33.664631N,-114.007439W,482.80,0.16,18
1586752,25.34,420.43,45,30.71,-8.99,3.76,1.51,10:57:58,33.664635N,-114.007439W,482.70,0.15,18
1587753,25.33,420.52,44,30.70,-8.94,3.61,1.83,10:57:59,33.664631N,-114.007423W,482.70,0.32,18
1588754,25.32,420.61,44,30.66,-9.08,3.58,1.52,10:58:0,33.664635N,-114.007423W,482.70,0.17,18
1589755,25.32,420.69,40,30.73,-8.44,4.10,1.45,10:58:1,33.664635N,-114.007423W,482.70,0.02,18
1590756,25.32,420.87,38,30.70,-8.76,3.63,1.24,10:58:2,33.664635N,-114.007439W,482.80,0.23,18
1591757,25.32,421.04,39,30.71,-9.02,3.42,1.61,10:58:3,33.664635N,-114.007439W,482.80,0.09,18
1592758,25.32,420.95,39,30.73,-9.14,3.42,1.42,10:58:4,33.664635N,-114.007423W,482.70,0.08,18
1593759,25.31,420.95,40,30.72,-9.23,3.61,1.39,10:58:5,33.664635N,-114.007423W,482.70,0.07,17
1594760,25.29,420.87,40,30.76,-9.14,4.57,1.07,10:58:6,33.664635N,-114.007423W,482.70,0.13,17
1595761,25.27,420.78,39,30.78,-8.75,4.01,0.55,10:58:7,33.664635N,-114.007423W,482.60,0.15,18
1596762,25.26,420.69,43,30.69,-8.79,3.97,1.04,10:58:8,33.664635N,-114.007423W,482.60,0.12,18
1597763,25.24,420.87,42,30.70,-8.50,3.81,2.76,10:58:9,33.664635N,-114.007423W,482.60,0.09,18
1598764,25.22,420.78,39,30.70,-8.92,2.14,1.37,10:58:10,33.664635N,-114.007423W,482.60,0.45,18
1599765,25.21,420.87,40,30.69,-9.54,2.97,2.11,10:58:11,33.664635N,-114.007423W,482.50,0.32,17
1600766,25.19,420.95,43,30.75,-9.31,3.46,1.35,10:58:12,33.664635N,-114.007423W,482.50,0.20,17
1601767,25.18,420.95,45,30.71,-9.42,1.90,3.39,10:58:13,33.664635N,-114.007423W,482.50,0.12,18
1602768,25.16,421.13,44,30.75,-9.95,2.40,3.05,10:58:14,33.664635N,-114.007423W,482.50,0.08,18
1603769,25.13,421.13,45,30.72,-9.32,2.47,3.13,10:58:15,33.664635N,-114.007423W,482.50,0.08,18
1604770,25.11,421.04,43,30.76,-8.64,3.92,2.68,10:58:16,33.664635N,-114.007423W,482.50,0.15,18
1605771,25.09,421.04,43,30.74,-8.69,3.80,2.15,10:58:17,33.664635N,-114.007423W,482.50,0.14,18
1606772,25.06,421.04,43,30.77,-9.93,3.22,-0.50,10:58:18,33.664635N,-114.007423W,482.50,0.12,18
1607773,25.04,421.04,42,30.75,-9.06,3.59,0.89,10:58:19,33.664635N,-114.007423W,482.40,0.09,18
1608774,25.02,421.04,40,30.75,-9.37,2.71,1.50,10:58:20,33.664635N,-114.007423W,482.40,0.16,18
1609775,25.00,421.13,43,30.76,-9.32,3.06,0.03,10:58:21,33.664635N,-114.007423W,482.40,0.12,18
1610776,24.98,421.04,43,30.74,-9.63,3.01,1.70,10:58:22,33.664635N,-114.007423W,482.50,0.09,18
1611777,24.95,421.04,42,30.76,-8.65,4.79,0.41,10:58:23,33.664635N,-114.007423W,482.50,0.15,18
1612778,24.93,420.95,42,30.76,-9.15,3.47,0.24,10:58:24,33.664635N,-114.007423W,482.60,0.36,18
1613779,24.90,420.87,42,30.74,-8.93,3.81,0.43,10:58:25,33.664635N,-114.007423W,482.50,0.13,18
1614780,24.88,420.87,42,30.75,-8.91,3.88,0.35,10:58:26,33.664635N,-114.007423W,482.60,0.01,18
1615781,24.86,420.95,43,30.74,-9.39,2.88,0.63,10:58:27,33.664639N,-114.007423W,482.60,0.08,18
1616782,24.83,421.13,39,30.74,-8.81,3.58,1.29,10:58:28,33.664639N,-114.007423W,482.70,0.08,18
1617783,24.81,421.04,40,30.75,-9.15,3.15,0.89,10:58:29,33.664639N,-114.007423W,482.70,0.08,18
1618784,24.80,420.87,36,30.75,-9.17,4.15,-0.31,10:58:30,33.664639N,-114.007423W,482.70,0.09,18
1619785,24.80,420.78,36,30.79,-9.92,3.46,-0.98,10:58:31,33.664639N,-114.007423W,482.70,0.07,18
1620786,24.80,420.87,34,30.80,-8.68,4.04,-0.35,10:58:32,33.664639N,-114.007423W,482.80,0.21,18
1621787,24.80,421.04,35,30.78,-8.67,4.60,0.10,10:58:33,33.664639N,-114.007423W,482.80,0.28,18
1622788,24.80,421.04,33,30.82,-8.72,4.40,0.19,10:58:34,33.664639N,-114.007423W,482.80,0.10,18
1623789,24.79,421.13,33,30.80,-8.77,4.31,0.15,10:58:35,33.664635N,-114.007423W,482.70,0.15,18
1624790,24.77,421.21,31,30.78,-8.96,4.06,-0.04,10:58:36,33.664635N,-114.007423W,482.70,0.05,18
1625791,24.76,421.21,36,30.79,-9.04,3.83,0.07,10:58:37,33.664639N,-114.007423W,482.60,0.12,18
1626792,24.74,421.30,36,30.81,-9.34,3.53,-0.03,10:58:38,33.664639N,-114.007423W,482.60,0.06,18
1627793,24.74,421.30,36,30.79,-9.11,3.12,0.80,10:58:39,33.664639N,-114.007423W,482.60,0.05,18
1628794,24.74,421.21,38,30.81,-9.37,2.91,0.39,10:58:40,33.664639N,-114.007423W,482.60,0.07,18
1629795,24.73,421.21,36,30.82,-9.24,3.52,0.05,10:58:41,33.664635N,-114.007423W,482.70,0.06,18
1630796,24.72,421.30,38,30.81,-9.07,3.51,0.56,10:58:42,33.664635N,-114.007423W,482.70,0.06,18
1631797,24.72,421.21,38,30.85,-8.94,3.77,0.50,10:58:43,33.664635N,-114.007423W,482.70,0.07,18
1632798,24.71,421.30,38,30.82,-9.07,3.73,0.33,10:58:44,33.664635N,-114.007423W,482.70,0.08,18
1633799,24.69,421.30,35,30.79,-9.15,3.39,0.02,10:58:45,33.664635N,-114.007423W,482.70,0.07,18
1634800,24.68,421.21,35,30.82,-8.86,3.79,-0.11,10:58:46,33.664635N,-114.007423W,482.70,0.07,18
1635801,24.66,421.21,36,30.83,-9.16,3.86,-0.09,10:58:47,33.664635N,-114.007423W,482.70,0.06,18
1636802,24.65,421.21,35,30.83,-9.49,3.59,0.20,10:58:48,33.664635N,-114.007423W,482.70,0.05,18
1637803,24.63,421.30,35,30.82,-9.13,3.62,-0.19,10:58:49,33.664635N,-114.007423W,482.70,0.07,18
1638804,24.61,421.47,36,30.85,-8.79,4.03,-0.07,10:58:50,33.664635N,-114.007423W,482.70,0.07,18
1639805,24.60,421.47,36,30.81,-8.82,4.00,-0.03,10:58:51,33.664635N,-114.007423W,482.80,0.08,18
1640806,24.59,421.56,36,30.85,-8.96,3.94,-0.09,10:58:52,33.664635N,-114.007423W,482.80,0.03,18
1641807,24.56,421.56,36,30.86,-9.04,3.96,-0.20,10:58:53,33.664635N,-114.007423W,482.80,0.03,18
1642808,24.53,421.56,36,30.81,-8.86,3.87,-0.21,10:58:54,33.664635N,-114.007423W,482.80,0.07,18
1643809,24.52,421.65,36,30.82,-9.10,3.68,-0.04,10:58:55,33.664635N,-114.007423W,482.80,0.05,18
1644810,24.50,421.65,36,30.87,-9.11,3.55,0.00,10:58:56,33.664635N,-114.007423W,482.80,0.05,18
1645811,24.48,421.65,36,30.86,-9.27,3.42,0.00,10:58:57,33.664635N,-114.007423W,482.80,0.05,18
1646812,24.45,421.56,33,30.85,-9.19,3.41,0.00,10:58:58,33.664635N,-114.007423W,482.80,0.02,18
1647813,24.42,421.65,31,30.85,-9.19,3.42,-0.11,10:58:59,33.664635N,-114.007423W,482.80,0.01,18
1648814,24.40,421.56,31,30.85,-9.08,3.61,-0.05,10:59:0,33.664635N,-114.007423W,482.80,0.02,18
1649815,24.37,421.47,31,30.86,-9.02,3.67,-0.05,10:59:1,33.664635N,-114.007423W,482.80,0.05,18
1650816,24.35,421.39,31,30.89,-9.10,3.58,-0.05,10:59:2,33.664635N,-114.007423W,482.80,0.05,18
1651817,24.32,421.39,31,30.86,-9.08,3.57,-0.14,10:59:3,33.664635N,-114.007423W,482.80,0.03,18
1652818,24.30,421.39,28,30.84,-9.12,3.14,-0.35,10:59:4,33.664635N,-114.007423W,482.80,0.03,18
1653819,24.28,421.47,31,30.87,-9.41,3.45,0.45,10:59:5,33.664635N,-114.007423W,482.80,0.08,18
1654820,24.26,421.47,30,30.86,-8.93,3.84,0.57,10:59:6,33.664635N,-114.007423W,482.80,0.09,18
1655821,24.24,421.47,29,30.86,-8.15,3.83,0.22,10:59:7,33.664635N,-114.007423W,482.90,0.09,18
1656822,24.23,421.47,29,30.87,-9.13,3.68,-0.15,10:59:8,33.664635N,-114.007423W,482.80,0.05,18
1657823,24.21,421.47,29,30.90,-9.14,3.71,-0.07,10:59:9,33.664635N,-114.007423W,482.80,0.01,18
1658824,24.20,421.65,29,30.87,-9.20,3.46,0.05,10:59:10,33.664635N,-114.007423W,482.80,0.02,18
1659825,24.19,421.56,29,30.89,-9.37,3.24,0.08,10:59:11,33.664639N,-114.007423W,482.80,0.02,18
1660826,24.18,421.56,29,30.89,-10.33,4.21,-0.24,10:59:12,33.664639N,-114.007423W,482.80,0.02,18
1661827,24.17,421.56,29,30.88,-9.02,3.63,0.18,10:59:13,33.664639N,-114.007423W,482.80,0.13,18
1662828,24.16,421.65,29,30.89,-9.04,3.76,0.30,10:59:14,33.664639N,-114.007423W,482.80,0.08,18
1663829,24.15,421.65,30,30.92,-9.04,3.83,0.32,10:59:15,33.664639N,-114.007423W,482.80,0.05,18
1664830,24.14,421.65,29,30.91,-9.04,3.55,0.36,10:59:16,33.664639N,-114.007423W,482.80,0.15,18
1665831,24.13,421.65,28,30.90,-9.05,3.73,0.27,10:59:17,33.664639N,-114.007423W,482.90,0.06,18
1666832,24.12,421.65,25,30.91,-9.65,3.13,1.01,10:59:18,33.664639N,-114.007423W,483.00,0.08,18
1667833,24.12,421.56,8,30.91,-8.34,2.74,-0.21,10:59:19,33.664639N,-114.007423W,482.90,0.44,18
1668834,24.12,421.04,30,30.90,-9.29,5.03,0.83,10:59:20,33.664639N,-114.007423W,483.00,0.63,18
1669835,24.11,420.69,30,30.91,-8.58,4.56,-0.60,10:59:21,33.664639N,-114.007423W,482.90,0.63,18
1670837,24.10,420.43,30,30.93,-8.59,4.56,-0.59,10:59:22,33.664639N,-114.007423W,483.00,0.22,18
1671837,24.09,420.26,33,30.91,-8.58,4.56,-0.59,10:59:23,33.664639N,-114.007423W,483.20,0.12,18
1672838,24.08,420.09,33,30.93,-8.59,4.56,-0.60,10:59:24,33.664642N,-114.007423W,483.20,0.06,18
1673839,24.08,420.00,33,30.94,-8.58,4.56,-0.60,10:59:25,33.664642N,-114.007423W,483.20,0.01,18
1674840,24.07,420.00,33,30.91,-8.58,4.56,-0.60,10:59:26,33.664642N,-114.007423W,483.30,0.08,18
1675841,24.06,419.83,33,30.88,-8.59,4.57,-0.61,10:59:27,33.664642N,-114.007423W,483.30,0.18,18
1676842,24.05,419.83,33,30.92,-8.59,4.57,-0.59,10:59:28,33.664639N,-114.007423W,483.30,0.14,18
1677843,24.05,419.83,31,30.91,-8.59,4.56,-0.60,10:59:29,33.664639N,-114.007423W,483.30,0.08,18
1678844,24.05,419.83,31,30.91,-8.57,4.56,-0.61,10:59:30,33.664639N,-114.007423W,483.40,0.05,18
1679845,24.05,419.83,33,30.90,-8.59,4.56,-0.60,10:59:31,33.664639N,-114.007423W,483.40,0.05,18
1680846,24.06,419.74,31,30.92,-8.58,4.56,-0.60,10:59:32,33.664639N,-114.007423W,483.40,0.05,18
1681847,24.06,419.74,31,30.92,-8.58,4.57,-0.59,10:59:33,33.664639N,-114.007423W,483.40,0.25,18
1682848,24.07,419.74,33,30.93,-8.59,4.57,-0.61,10:59:34,33.664639N,-114.007423W,483.40,0.13,18
1683849,24.07,419.83,30,30.95,-8.59,4.57,-0.61,10:59:35,33.664639N,-114.007423W,483.40,0.05,18
1684850,24.08,419.74,30,30.93,-8.59,4.56,-0.60,10:59:36,33.664639N,-114.007423W,483.50,0.03,18
1685851,24.09,419.74,30,30.91,-8.59,4.56,-0.60,10:59:37,33.664639N,-114.007423W,483.50,0.03,18
1686852,24.10,419.74,30,30.93,-8.58,4.56,-0.59,10:59:38,33.664639N,-114.007423W,483.50,0.06,18
1687853,24.11,419.74,30,30.95,-8.59,4.56,-0.60,10:59:39,33.664639N,-114.007423W,483.50,0.07,18
1688854,24.12,419.65,31,30.95,-8.58,4.58,-0.60,10:59:40,33.664639N,-114.007423W,483.50,0.06,18
1689855,24.14,419.74,31,30.95,-8.58,4.57,-0.60,10:59:41,33.664639N,-114.007423W,483.60,0.02,18
1690856,24.15,419.74,31,30.97,-8.59,4.56,-0.60,10:59:42,33.664639N,-114.007423W,483.60,0.01,18
1691857,24.16,419.83,34,30.96,-8.57,4.57,-0.60,10:59:43,33.664639N,-114.007423W,483.60,0.01,18
1692858,24.17,419.83,34,30.95,-8.58,4.56,-0.60,10:59:44,33.664639N,-114.007423W,483.70,0.02,18
1693859,24.19,419.91,34,30.98,-8.58,4.56,-0.61,10:59:45,33.664639N,-114.007423W,483.70,0.12,18
1694860,24.20,420.00,34,30.95,-8.59,4.56,-0.59,10:59:46,33.664639N,-114.007423W,483.70,0.09,18
1695861,24.21,420.09,34,30.95,-8.59,4.57,-0.60,10:59:47,33.664639N,-114.007423W,483.70,0.05,18
1696862,24.23,420.17,34,30.96,-8.58,4.56,-0.60,10:59:48,33.664639N,-114.007423W,483.70,0.05,18
1697863,24.24,420.26,34,30.96,-8.59,4.56,-0.60,10:59:49,33.664639N,-114.007423W,483.70,0.06,18
1698864,24.26,420.17,34,30.95,-8.58,4.56,-0.59,10:59:50,33.664639N,-114.007423W,483.70,0.17,18
1699865,24.28,420.26,34,30.95,-8.59,4.56,-0.60,10:59:51,33.664639N,-114.007423W,483.70,0.12,18
1700866,24.29,420.35,34,31.00,-8.58,4.56,-0.60,10:59:52,33.664639N,-114.007423W,483.70,0.10,18
1701867,24.31,420.35,34,30.95,-8.59,4.56,-0.59,10:59:53,33.664639N,-114.007423W,483.70,0.10,18
1702868,24.33,420.35,34,30.98,-8.59,4.56,-0.59,10:59:54,33.664639N,-114.007423W,483.70,0.08,18
1703869,24.34,420.26,34,30.95,-8.59,4.56,-0.59,10:59:55,33.664639N,-114.007423W,483.70,0.12,18
1704870,24.36,420.35,34,31.02,-8.59,4.56,-0.60,10:59:56,33.664639N,-114.007423W,483.70,0.10,18
1705871,24.38,420.17,34,30.95,-8.59,4.56,-0.60,10:59:57,33.664639N,-114.007423W,483.70,0.09,18
1706872,24.41,420.09,34,30.97,-8.59,4.55,-0.60,10:59:58,33.664639N,-114.007423W,483.80,0.13,18
1707873,24.43,420.09,33,30.98,-8.58,4.56,-0.61,10:59:59,33.664639N,-114.007423W,483.70,0.15,18
1708874,24.45,420.17,34,30.98,-8.58,4.56,-0.60,11:0:0,33.664639N,-114.007423W,483.70,0.07,18
1709875,24.47,420.17,33,30.98,-8.58,4.56,-0.60,11:0:1,33.664639N,-114.007423W,483.80,0.25,18
1710876,24.49,420.17,33,31.00,-8.59,4.55,-0.60,11:0:2,33.664639N,-114.007423W,483.80,0.16,18
1711877,24.51,420.17,34,30.98,-8.58,4.56,-0.60,11:0:3,33.664639N,-114.007423W,483.80,0.30,18
1712878,24.52,420.17,33,31.03,-8.59,4.56,-0.61,11:0:4,33.664639N,-114.007423W,483.80,0.18,18
1713879,24.54,420.17,31,31.02,-8.58,4.56,-0.61,11:0:5,33.664639N,-114.007423W,483.80,0.18,18
1714880,24.55,420.09,33,31.02,-8.59,4.57,-0.60,11:0:6,33.664639N,-114.007423W,483.80,0.17,18
1715881,24.57,420.09,33,30.98,-8.59,4.56,-0.60,11:0:7,33.664639N,-114.007423W,483.80,0.20,18
1716882,24.58,420.09,33,31.00,-8.59,4.57,-0.60,11:0:8,33.664635N,-114.007423W,483.80,0.03,18
1717883,24.60,420.09,33,31.06,-8.58,4.56,-0.60,11:0:9,33.664635N,-114.007423W,483.80,0.10,18
1718884,24.61,420.17,33,31.03,-8.59,4.57,-0.61,11:0:10,33.664635N,-114.007423W,483.80,0.08,18
1719885,24.62,420.17,30,31.05,-8.58,4.56,-0.59,11:0:11,33.664635N,-114.007423W,483.80,0.13,18
1720886,24.64,420.00,29,31.03,-8.58,4.56,-0.59,11:0:12,33.664635N,-114.007423W,483.80,0.02,18
1721887,24.65,419.83,28,31.01,-8.59,4.56,-0.60,11:0:13,33.664635N,-114.007423W,483.90,0.02,18
1722888,24.67,419.83,28,31.03,-8.59,4.56,-0.60,11:0:14,33.664635N,-114.007423W,483.80,0.06,18
1723889,24.69,419.74,29,31.04,-8.58,4.56,-0.60,11:0:15,33.664635N,-114.007423W,483.90,0.05,18
1724890,24.72,419.65,29,31.06,-8.59,4.55,-0.60,11:0:16,33.664635N,-114.007423W,483.90,0.01,18
1725891,24.75,419.57,31,31.04,-8.59,4.56,-0.60,11:0:17,33.664635N,-114.007423W,483.90,0.03,18
1726892,24.78,419.57,31,31.07,-8.57,4.57,-0.60,11:0:18,33.664635N,-114.007423W,483.90,0.29,18
1727893,24.80,419.57,31,31.02,-8.59,4.56,-0.59,11:0:19,33.664635N,-114.007423W,483.90,0.17,18
1728894,24.81,419.65,31,31.07,-8.59,4.55,-0.60,11:0:20,33.664635N,-114.007423W,483.80,0.17,18
1729895,24.82,419.65,31,31.08,-8.58,4.56,-0.60,11:0:21,33.664635N,-114.007423W,483.80,0.13,18
1730896,24.84,419.83,31,31.05,-8.58,4.57,-0.61,11:0:22,33.664635N,-114.007423W,483.70,0.20,18
1731897,24.85,419.83,31,31.06,-8.59,4.55,-0.59,11:0:23,33.664635N,-114.007423W,483.70,0.23,18
1732898,24.87,419.91,31,31.09,-8.58,4.57,-0.60,11:0:24,33.664635N,-114.007423W,483.70,0.25,18
1733899,24.89,420.00,29,31.05,-8.60,4.56,-0.61,11:0:25,33.664631N,-114.007423W,483.70,0.25,18
1734900,24.90,419.91,30,31.09,-8.59,4.56,-0.59,11:0:26,33.664631N,-114.007423W,483.70,0.17,18
1735901,24.92,419.83,29,31.11,-8.58,4.57,-0.60,11:0:27,33.664631N,-114.007423W,483.70,0.15,18
1736902,24.95,419.83,30,31.07,-8.59,4.56,-0.60,11:0:28,33.664631N,-114.007423W,483.70,0.08,18
1737903,24.97,419.83,30,31.10,-8.59,4.56,-0.60,11:0:29,33.664631N,-114.007423W,483.70,0.12,18
1738904,25.00,419.83,30,31.10,-8.59,4.56,-0.62,11:0:30,33.664631N,-114.007423W,483.70,0.17,18
1739905,25.01,419.83,30,31.07,-8.58,4.56,-0.59,11:0:31,33.664631N,-114.007423W,483.70,0.36,18
1740906,25.02,419.83,30,31.05,-8.58,4.57,-0.60,11:0:32,33.664635N,-114.007423W,483.70,0.83,18
1741907,25.03,419.83,30,31.07,-8.58,4.56,-0.59,11:0:33,33.664635N,-114.007423W,484.10,0.26,18
1742908,25.05,419.83,30,31.11,-8.58,4.56,-0.60,11:0:34,33.664635N,-114.007423W,484.20,0.62,18
1743909,25.06,419.83,30,31.07,-8.59,4.55,-0.61,11:0:35,33.664635N,-114.007423W,484.10,0.32,18
1744910,25.07,419.91,30,31.09,-8.58,4.55,-0.59,11:0:36,33.664635N,-114.007423W,483.90,0.00,18
1745911,25.08,419.91,33,31.11,-8.58,4.56,-0.61,11:0:37,33.664635N,-114.007423W,483.90,0.14,18
1746912,25.09,420.09,31,31.12,-8.58,4.56,-0.60,11:0:38,33.664635N,-114.007423W,483.90,0.12,18
1747913,25.10,420.26,31,31.07,-8.58,4.55,-0.60,11:0:39,33.664635N,-114.007423W,483.90,0.26,18
1748914,25.10,420.26,31,31.11,-8.58,4.57,-0.60,11:0:40,33.664635N,-114.007423W,483.90,0.14,18
1749915,25.10,420.35,31,31.10,-8.58,4.56,-0.59,11:0:41,33.664635N,-114.007423W,483.90,0.05,18
1750916,25.10,420.35,33,31.14,-8.58,4.57,-0.60,11:0:42,33.664635N,-114.007423W,484.00,0.01,18
1751917,25.10,420.35,31,31.08,-8.60,4.57,-0.60,11:0:43,33.664635N,-114.007423W,484.00,0.08,18
1752918,25.09,420.17,31,31.11,-8.60,4.56,-0.60,11:0:44,33.664635N,-114.007423W,484.00,0.10,18
1753919,25.10,420.17,31,31.13,-8.58,4.57,-0.61,11:0:45,33.664635N,-114.007423W,484.00,0.13,18
1754920,25.11,420.17,31,31.13,-8.59,4.56,-0.61,11:0:46,33.664635N,-114.007423W,484.10,0.28,18
1755921,25.13,420.17,33,31.12,-8.60,4.56,-0.61,11:0:47,33.664635N,-114.007423W,484.10,0.14,18
1756922,25.14,420.09,33,31.10,-8.59,4.56,-0.60,11:0:48,33.664635N,-114.007423W,484.10,0.10,18
1757923,25.15,420.09,31,31.16,-8.58,4.56,-0.61,11:0:49,33.664635N,-114.007423W,484.10,0.12,18
1758924,25.16,420.00,33,31.14,-8.59,4.55,-0.60,11:0:50,33.664635N,-114.007423W,484.10,0.03,18
1759925,25.17,420.00,31,31.15,-8.58,4.56,-0.61,11:0:51,33.664635N,-114.007423W,484.10,0.07,18
1760926,25.17,420.00,33,31.14,-8.58,4.56,-0.60,11:0:52,33.664635N,-114.007423W,484.10,0.09,18
1761927,25.18,420.00,33,31.15,-8.58,4.57,-0.60,11:0:53,33.664635N,-114.007423W,484.10,0.07,18
1762928,25.18,420.00,33,31.18,-8.58,4.56,-0.60,11:0:54,33.664635N,-114.007423W,484.10,0.10,18
1763929,25.19,420.00,33,31.16,-8.59,4.56,-0.60,11:0:55,33.664635N,-114.007423W,484.10,0.10,18
1764930,25.19,420.00,34,31.14,-8.60,4.56,-0.60,11:0:56,33.664635N,-114.007423W,484.10,0.09,18
1765931,25.20,420.00,33,31.12,-8.59,4.56,-0.60,11:0:57,33.664635N,-114.007423W,484.10,0.09,18
1766932,25.21,420.00,33,31.18,-8.58,4.56,-0.59,11:0:58,33.664635N,-114.007423W,484.10,0.01,18
1767933,25.22,420.00,33,31.18,-8.58,4.56,-0.60,11:0:59,33.664635N,-114.007423W,484.10,0.10,18
1768934,25.23,420.00,34,31.17,-8.58,4.56,-0.61,11:1:0,33.664635N,-114.007423W,484.10,0.08,18
1769935,25.25,420.00,33,31.14,-8.58,4.57,-0.62,11:1:1,33.664635N,-114.007423W,484.10,0.14,18
1770936,25.27,420.00,34,31.17,-8.58,4.57,-0.60,11:1:2,33.664635N,-114.007423W,484.10,0.96,18
1771937,25.28,420.00,34,31.15,-8.58,4.57,-0.60,11:1:3,33.664639N,-114.007423W,484.40,0.74,18
1772938,25.30,420.00,33,31.16,-8.59,4.56,-0.60,11:1:4,33.664639N,-114.007439W,484.40,0.51,18
1773939,25.32,420.00,35,31.15,-8.58,4.56,-0.60,11:1:5,33.664635N,-114.007439W,484.30,0.25,18
1774940,25.33,420.00,34,31.18,-8.59,4.56,-0.60,11:1:6,33.664635N,-114.007439W,484.20,0.09,18
1775941,25.34,419.91,33,31.17,-8.58,4.56,-0.59,11:1:7,33.664635N,-114.007439W,484.20,0.10,18
1776942,25.35,420.00,34,31.17,-8.58,4.57,-0.61,11:1:8,33.664635N,-114.007439W,484.20,0.08,18
1777943,25.36,419.91,35,31.18,-8.80,4.61,-0.78,11:1:9,33.664635N,-114.007439W,484.20,0.13,18
1778944,25.37,420.00,33,31.20,-8.59,4.54,-0.62,11:1:10,33.664635N,-114.007439W,484.20,0.10,18
1779945,25.38,419.91,33,31.19,-8.59,4.55,-0.62,11:1:11,33.664635N,-114.007439W,484.20,0.09,18
1780946,25.39,419.91,34,31.21,-8.59,4.56,-0.62,11:1:12,33.664635N,-114.007439W,484.20,0.06,18
1781947,25.40,419.91,34,31.21,-8.59,4.55,-0.62,11:1:13,33.664635N,-114.007439W,484.20,0.16,18
1782948,25.42,420.00,34,31.18,-8.59,4.55,-0.60,11:1:14,33.664635N,-114.007439W,484.30,0.08,18
1783949,25.43,420.00,34,31.18,-8.60,4.55,-0.62,11:1:15,33.664635N,-114.007439W,484.30,0.16,18
1784950,25.45,419.91,33,31.21,-8.59,4.55,-0.62,11:1:16,33.664635N,-114.007439W,484.20,0.13,18
1785951,25.47,419.91,34,31.18,-8.59,4.54,-0.61,11:1:17,33.664635N,-114.007439W,484.30,0.01,18
1786952,25.48,419.91,34,31.18,-8.60,4.56,-0.62,11:1:18,33.664635N,-114.007439W,484.30,0.07,18
1787953,25.49,419.91,34,31.21,-8.59,4.55,-0.61,11:1:19,33.664635N,-114.007439W,484.30,0.02,18
1788954,25.49,420.00,34,31.19,-8.58,4.55,-0.62,11:1:20,33.664635N,-114.007439W,484.30,0.05,18
1789955,25.50,419.91,34,31.20,-8.58,4.55,-0.61,11:1:21,33.664635N,-114.007439W,484.30,0.06,18
1790956,25.50,419.91,34,31.17,-8.58,4.55,-0.62,11:1:22,33.664635N,-114.007439W,484.40,0.00,18
1791957,25.49,419.91,34,31.20,-8.59,4.55,-0.62,11:1:23,33.664639N,-114.007439W,484.40,0.01,18
1792958,25.48,420.00,34,31.19,-8.59,4.55,-0.62,11:1:24,33.664639N,-114.007439W,484.40,0.07,18
1793959,25.47,419.91,34,31.18,-8.59,4.55,-0.61,11:1:25,33.664639N,-114.007439W,484.30,0.07,18
1794960,25.48,420.00,34,31.23,-8.59,4.55,-0.61,11:1:26,33.664639N,-114.007439W,484.40,0.12,18
1795961,25.48,420.09,34,31.23,-8.59,4.55,-0.62,11:1:27,33.664639N,-114.007439W,484.30,0.09,18
1796962,25.47,420.09,34,31.20,-8.59,4.55,-0.62,11:1:28,33.664639N,-114.007439W,484.30,0.09,18
1797963,25.47,420.00,33,31.19,-8.58,4.56,-0.61,11:1:29,33.664635N,-114.007439W,484.30,0.03,18
1798964,25.46,420.00,30,31.22,-8.59,4.55,-0.62,11:1:30,33.664635N,-114.007439W,484.30,0.09,18
1799965,25.46,419.91,33,31.20,-8.59,4.55,-0.61,11:1:31,33.664635N,-114.007439W,484.30,0.16,18
1800966,25.46,419.83,33,31.21,-8.59,4.55,-0.62,11:1:32,33.664639N,-114.007439W,484.30,0.32,18
1801967,25.47,420.00,30,31.26,-8.58,4.56,-0.61,11:1:33,33.664635N,-114.007439W,484.30,0.10,18
time_since_start,bme_temp,bme_alt,uv,ism_temp,acc_x,acc_y,acc_z,gps_time,latitude,longitude,gps_alt,speed,sats
1502138,24.91,919.90,0,24.11,-8.15,3.68,1.91,4:15:59,34.189342N,-112.970520W,963.80,8.62,18
1503139,24.91,919.81,0,24.14,-8.46,3.97,1.82,4:16:0,34.189308N,-112.970535W,963.90,8.63,18
1504140,24.91,919.81,0,24.09,-8.88,3.65,2.61,4:16:1,34.189281N,-112.970551W,963.90,8.57,18
1505141,24.91,919.81,0,24.14,-7.96,3.95,2.05,4:16:2,34.189243N,-112.970558W,962.80,8.10,18
1506142,24.91,919.72,0,24.14,-8.28,4.49,1.98,4:16:3,34.189209N,-112.970573W,961.60,8.51,18
1507143,24.91,919.63,0,24.16,-8.59,4.39,1.50,4:16:4,34.189178N,-112.970573W,960.60,8.76,18
1508144,24.91,919.63,0,24.09,-8.39,4.56,1.63,4:16:5,34.189144N,-112.970589W,960.70,9.42,18
1509145,24.90,919.44,0,24.11,-8.80,4.83,0.77,4:16:6,34.189114N,-112.970612W,960.60,9.45,18
1510146,24.90,919.35,0,24.09,-8.00,1.78,2.56,4:16:7,34.189079N,-112.970634W,960.50,9.84,18
1511147,24.90,919.26,0,24.10,-9.03,4.21,0.18,4:16:8,34.189045N,-112.970665W,959.90,9.80,18
1512148,24.90,919.17,0,24.16,-8.91,4.67,1.74,4:16:9,34.189007N,-112.970688W,959.20,9.84,18
1513149,24.90,919.08,0,24.12,-9.42,4.23,1.12,4:16:10,34.188965N,-112.970726W,958.70,10.34,18
1514150,24.90,918.99,0,24.11,-8.32,4.17,1.54,4:16:11,34.188927N,-112.970749W,958.20,10.26,18
1515151,24.89,918.90,0,24.13,-9.79,5.41,0.52,4:16:12,34.188885N,-112.970787W,957.80,10.77,18
1516152,24.89,918.81,0,24.12,-8.46,4.17,3.48,4:16:13,34.188847N,-112.970818W,957.30,11.03,18
1517153,24.88,918.62,0,24.09,-8.24,5.36,1.69,4:16:14,34.188808N,-112.970840W,956.70,10.04,18
1518154,24.88,918.44,0,24.12,-9.98,6.07,4.98,4:16:15,34.188778N,-112.970879W,956.00,9.81,18
1519155,24.89,918.44,0,24.15,-7.56,3.47,1.07,4:16:16,34.188744N,-112.970909W,955.20,9.51,18
1520156,24.89,918.26,0,24.19,-10.57,5.32,3.78,4:16:17,34.188709N,-112.970947W,954.30,9.25,18
1521157,24.89,918.17,0,24.11,-9.24,3.73,1.97,4:16:18,34.188686N,-112.970970W,954.90,8.86,18
1522158,24.89,917.99,0,24.11,-8.71,4.68,3.07,4:16:19,34.188660N,-112.970993W,954.10,9.21,18
1523159,24.89,917.80,0,24.12,-9.55,3.98,3.31,4:16:20,34.188637N,-112.971008W,954.50,9.00,18
1524160,24.89,917.71,0,24.15,-7.89,4.92,1.10,4:16:21,34.188618N,-112.971024W,955.50,7.93,18
1525161,24.88,917.80,0,24.16,-5.79,3.61,-0.11,4:16:22,34.188587N,-112.971062W,955.50,8.28,18
1526162,24.88,917.53,0,24.15,-9.38,5.20,1.89,4:16:23,34.188549N,-112.971100W,955.10,10.87,18
1527163,24.88,917.44,0,24.12,-8.08,4.43,2.42,4:16:24,34.188511N,-112.971138W,954.70,11.23,18
1528164,24.88,917.44,0,24.14,-8.48,4.59,1.68,4:16:25,34.188488N,-112.971176W,955.30,10.72,18
1529165,24.89,917.17,0,24.14,-9.03,5.90,-0.21,4:16:26,34.188454N,-112.971214W,955.20,9.58,18
1530166,24.89,917.08,0,24.14,-10.47,5.35,1.98,4:16:27,34.188427N,-112.971252W,955.30,9.53,18
1531167,24.88,917.08,0,24.14,-6.01,2.12,2.83,4:16:28,34.188400N,-112.971291W,955.50,9.56,18
1532168,24.88,916.99,0,24.16,-8.64,3.91,2.70,4:16:29,34.188377N,-112.971313W,955.90,9.22,18
1533169,24.88,916.89,0,24.15,-9.08,4.30,2.38,4:16:30,34.188354N,-112.971352W,956.30,9.43,18
1534170,24.88,916.80,0,24.15,-9.65,4.89,1.86,4:16:31,34.188332N,-112.971382W,956.50,9.83,18
1535171,24.89,916.80,0,24.18,-8.29,4.29,1.18,4:16:32,34.188309N,-112.971420W,956.70,10.06,18
1536172,24.89,916.71,0,24.11,-9.25,4.47,2.41,4:16:33,34.188282N,-112.971458W,956.80,9.98,18
1537173,24.89,916.71,0,24.15,-8.72,4.37,2.36,4:16:34,34.188251N,-112.971504W,957.10,11.07,18
1538174,24.89,916.62,0,24.15,-7.05,3.18,1.98,4:16:35,34.188221N,-112.971558W,957.30,10.83,18
1539175,24.88,916.62,0,24.10,-6.99,4.14,1.69,4:16:36,34.188190N,-112.971581W,957.80,10.36,18
1540176,24.88,916.62,0,24.12,-8.26,2.80,3.03,4:16:37,34.188168N,-112.971611W,958.40,10.01,18
1541177,24.88,916.53,0,24.14,-7.47,3.36,3.71,4:16:38,34.188129N,-112.971649W,958.50,9.50,18
1542178,24.87,916.53,0,24.12,-8.52,4.45,2.15,4:16:39,34.188091N,-112.971664W,958.50,9.09,18
1543179,24.87,916.35,0,24.12,-9.43,6.75,0.08,4:16:40,34.188057N,-112.971672W,958.30,9.10,18
1544180,24.87,916.35,0,24.15,-8.63,4.17,0.76,4:16:41,34.188023N,-112.971664W,958.20,9.05,18
1545181,24.87,916.35,0,24.15,-8.43,3.91,2.30,4:16:42,34.187984N,-112.971649W,958.00,9.37,18
1546182,24.87,916.17,0,24.12,-8.46,3.94,1.64,4:16:43,34.187950N,-112.971619W,957.80,9.29,18
1547183,24.88,916.08,0,24.13,-8.26,3.94,1.89,4:16:44,34.187923N,-112.971581W,957.90,8.74,18
1548184,24.88,915.89,0,24.14,-8.53,6.06,1.13,4:16:45,34.187901N,-112.971558W,957.90,9.05,18
1549185,24.88,915.80,0,24.20,-12.04,5.18,1.51,4:16:46,34.187874N,-112.971535W,958.00,8.78,18
1550186,24.89,915.71,0,24.16,-9.03,4.54,2.52,4:16:47,34.187843N,-112.971519W,957.70,8.70,18
1551187,24.89,915.62,0,24.14,-9.43,4.60,1.82,4:16:48,34.187813N,-112.971497W,957.20,8.69,18
1552188,24.89,915.62,0,24.19,-7.44,2.90,3.24,4:16:49,34.187786N,-112.971481W,957.30,8.92,18
1553189,24.90,915.71,0,24.17,-6.63,3.11,2.47,4:16:50,34.187744N,-112.971466W,956.80,8.90,18
1554190,24.90,915.80,0,24.14,-8.60,1.80,2.46,4:16:51,34.187717N,-112.971458W,957.60,8.31,18
1555191,24.90,915.89,0,24.13,-8.26,3.12,-0.13,4:16:52,34.187675N,-112.971443W,957.20,9.21,18
1556192,24.91,915.89,0,24.13,-8.57,4.13,1.25,4:16:53,34.187630N,-112.971443W,957.10,10.58,18
1557193,24.91,915.80,0,24.14,-8.41,4.61,1.16,4:16:54,34.187584N,-112.971443W,957.20,10.81,18
1558194,24.91,915.62,0,24.12,-8.35,4.57,0.92,4:16:55,34.187542N,-112.971458W,957.30,11.13,18
1559195,24.92,915.71,0,24.13,-9.37,3.94,2.12,4:16:56,34.187496N,-112.971466W,957.40,11.07,18
1560196,24.92,915.80,0,24.15,-8.63,4.17,0.90,4:16:57,34.187450N,-112.971481W,957.70,11.14,18
1561197,24.93,915.80,0,24.11,-8.97,4.20,1.81,4:16:58,34.187405N,-112.971497W,957.90,11.21,18
1562198,24.93,915.80,0,24.14,-8.64,4.56,1.31,4:16:59,34.187363N,-112.971504W,958.20,11.75,18
1563199,24.93,915.80,0,24.15,-8.44,4.53,1.69,4:17:0,34.187317N,-112.971519W,957.90,11.82,18
1564200,24.93,915.80,0,24.09,-8.43,4.65,1.89,4:17:1,34.187271N,-112.971519W,958.10,11.80,18
1565201,24.93,915.80,0,24.11,-8.10,3.43,3.36,4:17:2,34.187222N,-112.971519W,957.90,11.39,18
1566202,24.94,915.62,0,24.07,-9.65,5.06,1.00,4:17:3,34.187180N,-112.971504W,957.60,10.87,18
1567203,24.94,915.53,0,24.12,-7.96,3.64,2.10,4:17:4,34.187138N,-112.971504W,957.90,10.54,18
1568204,24.94,915.35,0,24.12,-7.68,3.95,2.69,4:17:5,34.187099N,-112.971497W,958.50,10.05,18
1569205,24.95,915.26,0,24.11,-8.47,3.84,2.93,4:17:6,34.187065N,-112.971497W,959.00,9.74,18
1570206,24.95,915.07,0,24.15,-8.95,4.06,2.07,4:17:7,34.187023N,-112.971481W,958.90,10.32,18
1571207,24.95,914.98,0,24.09,-9.16,3.62,2.91,4:17:8,34.186977N,-112.971466W,958.30,10.08,18
1572208,24.96,914.80,0,24.12,-8.55,6.14,2.09,4:17:9,34.186939N,-112.971481W,957.80,9.85,18
1573209,24.96,914.62,0,24.09,-7.70,3.46,1.83,4:17:10,34.186893N,-112.971497W,957.50,9.83,18
1574210,24.97,914.53,0,24.07,-8.14,3.50,1.39,4:17:11,34.186848N,-112.971504W,957.00,10.03,18
1575211,24.97,914.53,0,24.08,-6.92,4.77,0.03,4:17:12,34.186802N,-112.971504W,956.80,9.51,18
1576212,24.98,914.44,0,24.11,-7.98,3.99,0.90,4:17:13,34.186760N,-112.971519W,956.60,9.96,18
1577213,24.98,914.26,0,24.12,-7.41,4.22,1.06,4:17:14,34.186722N,-112.971519W,956.50,9.60,18
1578214,24.99,914.26,0,24.16,-8.08,4.97,-0.62,4:17:15,34.186680N,-112.971535W,956.50,9.28,18
1579215,24.99,914.26,0,24.10,-9.31,5.87,2.16,4:17:16,34.186642N,-112.971535W,956.30,9.37,18
1580216,25.00,913.98,0,24.20,-8.56,5.14,1.73,4:17:17,34.186611N,-112.971535W,956.10,8.61,18
1581217,25.00,913.80,0,24.20,-9.13,5.69,1.61,4:17:18,34.186581N,-112.971542W,956.10,6.54,18
1582218,25.00,913.62,0,24.21,-9.76,4.43,2.83,4:17:19,34.186562N,-112.971542W,956.10,6.30,18
1583219,25.01,913.44,0,24.15,-7.81,3.53,0.81,4:17:20,34.186543N,-112.971558W,956.20,5.74,18
1584220,25.01,913.44,0,24.17,-9.94,3.63,5.68,4:17:21,34.186520N,-112.971558W,956.10,5.95,18
1585221,25.01,913.35,0,24.11,-7.96,4.39,1.78,4:17:22,34.186493N,-112.971558W,956.00,6.31,18
1586222,25.02,913.44,0,24.13,-7.98,3.50,3.09,4:17:23,34.186466N,-112.971573W,955.90,6.72,18
1587223,25.02,913.35,0,24.11,-9.16,4.64,2.02,4:17:24,34.186440N,-112.971573W,955.50,7.11,18
1588224,25.03,913.26,0,24.15,-8.22,3.67,3.94,4:17:25,34.186405N,-112.971573W,955.30,7.31,18
1589225,25.04,913.16,0,24.12,-8.84,4.09,2.99,4:17:26,34.186378N,-112.971581W,955.40,7.49,18
1590226,25.04,913.26,0,24.12,-8.55,4.19,1.94,4:17:27,34.186348N,-112.971596W,955.00,7.82,18
1591227,25.04,913.16,0,24.10,-8.47,3.85,1.75,4:17:28,34.186314N,-112.971596W,955.00,8.17,18
1592228,25.04,912.98,0,24.11,-8.55,3.34,2.18,4:17:29,34.186283N,-112.971611W,954.50,8.40,17
1593229,25.05,912.89,0,24.09,-7.79,4.47,2.95,4:17:30,34.186245N,-112.971619W,954.10,8.68,18
1594230,25.05,912.98,0,24.07,-8.27,6.15,-1.27,4:17:31,34.186214N,-112.971634W,953.90,8.66,18
1595231,25.05,912.80,0,24.11,-8.20,3.92,1.20,4:17:32,34.186184N,-112.971634W,954.50,8.62,18
1596232,25.06,912.62,0,24.14,-11.76,5.77,6.00,4:17:33,34.186146N,-112.971649W,954.30,8.90,18
1597233,25.06,912.62,0,24.11,-6.00,2.63,2.08,4:17:34,34.186111N,-112.971664W,954.30,8.62,18
1598234,25.06,912.62,0,24.11,-9.76,5.02,2.43,4:17:35,34.186081N,-112.971664W,954.20,8.53,18
1599235,25.07,912.53,0,24.10,-9.49,3.70,3.91,4:17:36,34.186047N,-112.971664W,953.60,8.46,18
1600236,25.07,912.53,0,24.11,-6.34,4.17,-0.10,4:17:37,34.186008N,-112.971672W,953.00,8.41,18
1601237,25.08,912.53,0,24.11,-8.67,4.07,1.83,4:17:38,34.185982N,-112.971687W,952.90,8.41,18
1602238,25.08,912.44,0,24.10,-8.99,4.02,3.43,4:17:39,34.185947N,-112.971703W,952.80,8.89,18
1603239,25.09,912.44,0,24.10,-8.34,4.37,0.10,4:17:40,34.185909N,-112.971710W,953.10,9.62,18
1604240,25.09,912.44,0,24.07,-8.91,5.82,1.30,4:17:41,34.185875N,-112.971725W,954.00,10.35,18
1605241,25.09,912.35,0,24.15,-8.63,5.52,1.83,4:17:42,34.185837N,-112.971748W,954.00,10.72,18
1606242,25.10,912.16,0,24.13,-8.85,3.48,2.54,4:17:43,34.185795N,-112.971779W,953.80,10.30,18
1607243,25.11,911.89,0,24.08,-9.74,4.79,2.00,4:17:44,34.185760N,-112.971802W,953.30,9.82,18
1608244,25.11,911.80,0,24.13,-7.49,3.27,1.86,4:17:45,34.185722N,-112.971825W,953.10,9.81,18
1609245,25.12,911.71,0,24.14,-8.77,4.18,0.80,4:17:46,34.185688N,-112.971855W,952.50,9.75,18
1610246,25.12,911.62,0,24.11,-9.33,4.19,2.14,4:17:47,34.185654N,-112.971878W,952.70,9.78,18
1611247,25.13,911.53,0,24.14,-8.19,4.92,0.66,4:17:48,34.185623N,-112.971901W,952.40,9.98,18
1612248,25.13,911.44,0,24.09,-8.32,5.68,-0.12,4:17:49,34.185589N,-112.971939W,952.10,10.49,18
1613249,25.13,911.53,0,24.13,-8.71,5.04,0.29,4:17:50,34.185551N,-112.971970W,951.60,11.30,18
1614250,25.14,911.44,0,24.11,-8.41,3.95,2.07,4:17:51,34.185509N,-112.972008W,951.20,11.96,18
1615251,25.14,911.25,0,24.14,-8.71,4.64,1.68,4:17:52,34.185471N,-112.972031W,951.30,11.89,18
1616252,25.14,911.25,0,24.07,-8.45,3.95,1.23,4:17:53,34.185429N,-112.972069W,951.30,11.84,18
1617253,25.14,911.16,0,24.07,-8.72,4.74,0.49,4:17:54,34.185383N,-112.972099W,951.40,11.89,18
1618254,25.15,911.07,0,24.10,-9.05,4.89,2.41,4:17:55,34.185337N,-112.972137W,951.30,12.63,18
1619255,25.15,910.98,0,24.12,-9.10,3.96,3.30,4:17:56,34.185287N,-112.972160W,951.30,12.94,18
1620256,25.16,910.71,0,24.13,-7.76,4.81,1.85,4:17:57,34.185234N,-112.972198W,951.40,12.97,18
1621257,25.16,910.62,0,24.12,-8.86,4.99,1.23,4:17:58,34.185207N,-112.972214W,953.40,11.90,18
1622258,25.16,910.62,0,24.10,-8.16,3.31,2.81,4:17:59,34.185169N,-112.972221W,954.70,11.91,18
1623259,25.16,910.34,0,24.13,-8.29,4.17,1.90,4:18:0,34.185123N,-112.972237W,955.20,11.96,18
1624260,25.16,910.34,0,24.11,-8.42,4.60,1.98,4:18:1,34.185074N,-112.972260W,955.50,11.94,18
1625261,25.17,910.25,0,24.12,-8.26,4.35,1.49,4:18:2,34.185032N,-112.972260W,956.30,12.12,18
1626262,25.17,910.25,0,24.13,-9.41,3.99,1.45,4:18:3,34.184986N,-112.972275W,956.60,12.06,18
1627263,25.17,910.16,0,24.14,-8.82,5.01,0.69,4:18:4,34.184940N,-112.972298W,956.80,11.67,18
1628264,25.18,910.16,0,24.07,-8.49,4.00,1.77,4:18:5,34.184895N,-112.972313W,956.80,11.61,18
1629265,25.18,909.98,0,24.07,-8.41,5.35,1.90,4:18:6,34.184856N,-112.972351W,957.00,11.67,18
1630266,25.18,909.71,0,24.07,-8.45,4.26,1.74,4:18:7,34.184814N,-112.972374W,957.00,11.63,18
1631267,25.18,909.44,0,24.14,-8.54,4.82,2.39,4:18:8,34.184776N,-112.972404W,956.70,11.60,18
1632268,25.17,909.34,0,24.10,-8.98,4.59,1.00,4:18:9,34.184734N,-112.972443W,956.50,11.22,18
1633269,25.17,909.16,0,24.10,-8.51,3.81,3.09,4:18:10,34.184696N,-112.972466W,956.10,10.52,18
1634270,25.17,909.25,0,24.10,-6.36,4.25,2.83,4:18:11,34.184654N,-112.972496W,955.60,10.50,18
1635271,25.17,909.34,0,24.11,-9.85,6.72,-0.86,4:18:12,34.184612N,-112.972504W,955.40,9.82,18
1636272,25.17,909.25,0,24.17,-9.00,4.79,2.69,4:18:13,34.184578N,-112.972519W,955.50,8.91,18
1637273,25.17,909.16,0,24.15,-9.12,3.39,2.68,4:18:14,34.184540N,-112.972534W,955.20,7.85,18
1638274,25.17,909.07,0,24.16,-8.84,4.54,2.69,4:18:15,34.184517N,-112.972534W,955.30,7.17,18
1639275,25.18,908.80,0,24.14,-8.95,4.10,2.53,4:18:16,34.184486N,-112.972542W,954.70,7.23,18
1640276,25.18,908.62,0,24.20,-8.84,4.15,2.92,4:18:17,34.184464N,-112.972542W,954.50,6.98,18
1641277,25.18,908.53,0,24.19,-8.16,3.19,2.89,4:18:18,34.184437N,-112.972534W,954.50,6.61,18
1642278,25.19,908.53,0,24.16,-11.72,4.51,2.61,4:18:19,34.184406N,-112.972534W,954.30,6.34,18
1643279,25.19,908.53,0,24.18,-7.68,3.05,3.64,4:18:20,34.184383N,-112.972534W,954.20,6.40,18
1644280,25.19,908.62,0,24.19,-8.98,3.52,1.02,4:18:21,34.184357N,-112.972534W,953.60,6.95,18
1645281,25.20,908.53,0,24.18,-6.76,3.59,0.32,4:18:22,34.184330N,-112.972534W,953.30,6.88,18
1646282,25.20,908.62,0,24.11,-8.89,4.37,0.96,4:18:23,34.184303N,-112.972534W,953.00,7.29,18
1647283,25.20,908.53,0,24.07,-7.93,3.77,1.96,4:18:24,34.184273N,-112.972542W,952.90,8.84,18
1648284,25.20,908.34,0,24.11,-8.65,4.72,1.93,4:18:25,34.184238N,-112.972557W,953.10,9.12,18
1649285,25.21,908.07,0,24.11,-8.98,5.15,2.18,4:18:26,34.184200N,-112.972580W,953.00,9.47,18
1650286,25.21,908.07,0,24.11,-8.73,4.63,0.96,4:18:27,34.184162N,-112.972595W,953.10,9.50,18
1651287,25.20,908.07,0,24.11,-8.37,4.91,0.81,4:18:28,34.184124N,-112.972610W,953.20,9.56,18
1652288,25.20,908.07,0,24.11,-8.76,5.41,0.22,4:18:29,34.184086N,-112.972618W,953.20,9.30,18
1653289,25.19,907.98,0,24.15,-8.70,4.51,0.91,4:18:30,34.184059N,-112.972633W,953.70,8.77,18
1654290,25.19,907.89,0,24.14,-8.72,4.90,0.79,4:18:31,34.184029N,-112.972649W,953.80,8.49,18
1655291,25.19,907.62,0,24.09,-7.96,4.16,0.94,4:18:32,34.183998N,-112.972672W,953.80,7.99,18
1656292,25.19,907.53,0,24.07,-7.24,4.51,3.18,4:18:33,34.183975N,-112.972694W,953.70,6.63,18
1657293,25.19,907.34,0,24.11,-8.15,5.99,3.09,4:18:34,34.183949N,-112.972710W,953.50,6.54,18
1658294,25.18,907.16,0,24.09,-8.12,5.16,2.54,4:18:35,34.183929N,-112.972710W,953.30,4.14,18
1659295,25.17,906.98,0,24.08,-8.83,4.24,2.58,4:18:36,34.183918N,-112.972725W,952.90,0.20,18
1660296,25.17,906.89,0,24.13,-8.51,4.09,2.37,4:18:37,34.183914N,-112.972725W,952.80,0.03,18
1661297,25.16,906.80,0,24.07,-8.00,5.01,2.45,4:18:38,34.183914N,-112.972725W,952.80,0.03,18
1662298,25.16,906.71,0,24.10,-8.19,5.00,2.34,4:18:39,34.183918N,-112.972725W,952.80,0.05,18
1663299,25.16,906.71,0,24.10,-8.56,3.44,2.08,4:18:40,34.183922N,-112.972725W,953.00,0.21,18
1664300,25.16,906.62,0,24.07,-9.05,3.34,1.98,4:18:41,34.183929N,-112.972725W,953.00,0.26,18
1665301,25.16,906.62,0,24.12,-8.19,4.29,2.13,4:18:42,34.183929N,-112.972710W,952.70,0.12,18
1666302,25.16,906.62,0,24.08,-8.62,4.39,2.19,4:18:43,34.183933N,-112.972710W,952.80,0.00,18
1667303,25.16,906.62,0,24.13,-8.61,4.43,2.29,4:18:44,34.183933N,-112.972710W,952.80,0.01,18
1668304,25.15,906.62,0,24.14,-8.45,4.36,2.17,4:18:45,34.183933N,-112.972710W,952.90,0.01,18
1669305,25.15,906.62,0,24.17,-8.54,4.35,2.14,4:18:46,34.183933N,-112.972710W,952.90,0.00,18
1670306,25.14,906.62,0,24.11,-8.56,4.40,2.15,4:18:47,34.183933N,-112.972710W,952.90,0.00,18
1671307,25.14,906.62,0,24.21,-8.48,4.35,2.10,4:18:48,34.183933N,-112.972710W,952.90,0.00,18
1672308,25.14,906.71,0,24.17,-8.38,4.35,2.27,4:18:49,34.183933N,-112.972710W,952.90,0.00,18
1673309,25.14,906.71,0,24.15,-8.65,4.40,2.26,4:18:50,34.183933N,-112.972710W,952.90,0.01,18
1674310,25.14,906.62,0,24.15,-8.70,4.33,2.20,4:18:51,34.183933N,-112.972710W,952.90,0.01,18
1675311,25.14,906.71,0,24.18,-8.39,4.32,2.13,4:18:52,34.183933N,-112.972710W,952.90,0.01,18
1676312,25.15,906.62,0,24.17,-8.45,4.31,2.09,4:18:53,34.183933N,-112.972710W,952.80,0.00,18
1677313,25.15,906.62,0,24.21,-8.49,4.29,2.21,4:18:54,34.183933N,-112.972710W,952.90,0.00,18
1678314,25.15,906.62,0,24.17,-8.55,4.41,2.22,4:18:55,34.183933N,-112.972710W,952.90,0.01,18
1679315,25.15,906.62,0,24.18,-8.49,4.29,2.19,4:18:56,34.183933N,-112.972710W,952.90,0.01,17
1680316,25.16,906.62,0,24.14,-8.62,4.41,2.02,4:18:57,34.183933N,-112.972710W,952.90,0.01,17
1681317,25.16,906.62,0,24.14,-8.60,4.38,2.15,4:18:58,34.183933N,-112.972710W,952.90,0.01,17
1682318,25.16,906.62,1,24.20,-8.60,4.42,2.13,4:18:59,34.183933N,-112.972710W,952.90,0.08,17
1683319,25.16,906.62,1,24.20,-8.61,4.33,2.20,4:19:0,34.183929N,-112.972710W,952.90,0.05,18
1684320,25.16,906.71,1,24.20,-8.72,3.97,2.15,4:19:1,34.183929N,-112.972710W,952.90,0.28,18
1685321,25.16,906.71,1,24.16,-8.53,4.38,2.26,4:19:2,34.183929N,-112.972710W,952.90,0.24,18
1686322,25.17,906.80,0,24.18,-8.47,4.23,2.30,4:19:3,34.183929N,-112.972710W,952.90,0.06,18
1687323,25.17,906.80,1,24.11,-11.24,4.58,3.86,4:19:4,34.183929N,-112.972710W,952.90,0.25,18
1688324,25.17,906.71,0,24.12,-24.11,-1.46,-13.02,4:19:5,34.183929N,-112.972710W,952.90,0.66,18
1689325,25.17,906.71,0,24.12,-8.74,1.82,-0.17,4:19:6,34.183929N,-112.972710W,952.90,0.13,18
1690326,25.17,906.71,0,24.13,-8.71,4.43,-0.89,4:19:7,34.183929N,-112.972710W,952.90,0.10,18
1691327,25.17,906.71,0,24.15,-8.66,4.26,-0.91,4:19:8,34.183929N,-112.972710W,952.90,0.17,18
1692328,25.17,906.80,1,24.15,-8.72,4.43,-0.88,4:19:9,34.183929N,-112.972710W,952.90,0.09,18
1693329,25.17,906.71,0,24.14,-8.89,4.02,-0.45,4:19:10,34.183933N,-112.972710W,952.90,0.13,18
1694330,25.17,906.07,1,24.14,-8.76,4.37,-0.80,4:19:11,34.183933N,-112.972710W,952.90,0.13,18
1695331,25.17,906.25,0,24.11,-8.66,4.37,-0.74,4:19:12,34.183933N,-112.972710W,952.90,0.20,18
1696332,25.17,906.34,0,24.07,-8.56,4.38,-0.85,4:19:13,34.183933N,-112.972710W,952.90,0.13,18
1697333,25.17,906.43,0,24.11,-8.57,4.23,-0.68,4:19:14,34.183933N,-112.972710W,952.90,0.36,17
1698334,25.18,906.53,0,24.11,-8.50,4.36,-0.79,4:19:15,34.183933N,-112.972710W,952.90,0.37,17
1699335,25.18,906.53,0,24.07,-8.74,4.45,-1.14,4:19:16,34.183937N,-112.972710W,952.90,0.18,17
1700336,25.18,906.62,0,24.14,-8.31,4.64,-0.87,4:19:17,34.183937N,-112.972710W,952.90,0.13,17
1701337,25.19,906.62,0,24.06,-8.59,4.46,-0.82,4:19:18,34.183937N,-112.972710W,952.90,0.18,17
1702338,25.19,906.71,0,24.09,-8.65,4.48,-0.92,4:19:19,34.183937N,-112.972710W,952.90,0.12,17
1703339,25.19,906.71,0,24.07,-8.63,4.40,-0.89,4:19:20,34.183937N,-112.972710W,952.90,0.08,17
1704340,25.19,906.43,0,24.08,-8.74,4.46,-0.89,4:19:21,34.183937N,-112.972710W,952.90,0.03,17
1705341,25.21,906.53,0,24.11,-8.61,4.32,-0.79,4:19:22,34.183937N,-112.972710W,952.90,0.10,17
1706342,25.21,906.53,0,24.16,-8.69,4.33,-0.82,4:19:23,34.183937N,-112.972710W,952.80,0.21,17
1707343,25.21,906.62,0,24.07,-8.71,4.35,-0.83,4:19:24,34.183937N,-112.972710W,952.80,0.30,17
1708344,25.21,906.62,0,24.08,-8.76,4.39,-0.93,4:19:25,34.183937N,-112.972710W,952.90,0.33,13
1709345,25.22,906.71,0,24.05,-8.61,4.48,-0.92,4:19:26,34.183941N,-112.972710W,952.80,0.62,11
1710346,25.22,906.71,0,24.10,-8.63,4.37,-0.84,4:19:27,34.183941N,-112.972725W,952.80,0.89,12
1711347,25.22,906.71,0,24.11,-8.70,4.45,-0.88,4:19:28,34.183941N,-112.972710W,952.80,0.32,15
1712348,25.22,906.71,0,24.10,-8.70,4.41,-0.92,4:19:29,34.183941N,-112.972725W,952.80,0.16,15
1713349,25.22,906.71,0,24.12,-8.80,4.56,-0.88,4:19:30,34.183941N,-112.972725W,952.80,0.15,16
1714350,25.23,906.71,0,24.06,-8.82,4.13,-1.12,4:19:31,34.183941N,-112.972725W,952.80,0.20,16
1715351,25.23,906.71,0,24.12,-9.78,3.12,-1.97,4:19:32,34.183941N,-112.972725W,952.80,0.35,16
1716352,25.23,906.71,0,24.11,-9.10,4.18,-1.01,4:19:33,34.183941N,-112.972725W,952.80,1.25,16
1717353,25.24,906.71,0,24.07,-8.52,4.16,-1.06,4:19:34,34.183929N,-112.972725W,952.80,2.60,16
1718354,25.24,906.71,0,24.12,-8.71,3.90,-0.65,4:19:35,34.183914N,-112.972725W,952.70,3.79,17
1719355,25.24,906.80,0,24.09,-8.41,4.22,-0.59,4:19:36,34.183891N,-112.972733W,952.50,6.03,17
1720356,25.24,906.89,0,24.07,-8.89,4.28,-1.31,4:19:37,34.183865N,-112.972733W,952.40,6.55,17
1721357,25.25,906.89,0,24.08,-8.55,3.85,-0.69,4:19:38,34.183838N,-112.972748W,952.10,6.57,17
1722358,25.25,906.89,0,24.07,-8.82,4.24,-0.09,4:19:39,34.183807N,-112.972763W,951.80,7.04,17
1723359,25.25,906.98,0,24.02,-10.99,5.28,2.05,4:19:40,34.183777N,-112.972771W,951.50,7.57,17
1724360,25.26,906.80,0,24.07,-10.49,4.66,-0.30,4:19:41,34.183746N,-112.972786W,951.20,7.49,16
1725361,25.26,906.80,0,24.10,-8.11,4.42,-1.64,4:19:42,34.183716N,-112.972801W,950.90,7.44,17
1726362,25.26,906.80,0,24.05,-8.15,4.36,-2.15,4:19:43,34.183681N,-112.972816W,950.40,7.46,17
1727363,25.26,906.80,4294967295,24.09,-8.57,4.43,-1.33,4:19:44,34.183659N,-112.972824W,950.10,7.79,17
1728364,25.25,906.80,0,24.04,-8.48,4.83,-1.80,4:19:45,34.183624N,-112.972839W,949.80,7.85,17
1729365,25.25,906.80,0,24.13,-8.40,4.70,-1.58,4:19:46,34.183594N,-112.972855W,949.50,8.63,17
1730366,25.24,906.62,0,24.07,-8.07,4.18,-1.23,4:19:47,34.183563N,-112.972862W,949.20,8.92,17
1731367,25.24,906.62,0,24.10,-7.47,4.39,-2.45,4:19:48,34.183525N,-112.972878W,949.00,8.94,17
1732368,25.23,906.43,0,24.06,-9.15,5.18,-1.17,4:19:49,34.183487N,-112.972893W,948.70,9.20,17
1733369,25.22,906.34,0,24.11,-10.38,3.98,0.01,4:19:50,34.183449N,-112.972900W,948.30,9.46,17
1734370,25.22,906.34,0,24.15,-8.45,4.69,-1.61,4:19:51,34.183411N,-112.972931W,948.00,9.46,17
1735371,25.22,906.34,0,24.19,-8.81,4.18,-1.10,4:19:52,34.183376N,-112.972939W,947.60,9.54,17
1736372,25.22,905.71,0,24.12,-9.22,4.56,-0.33,4:19:53,34.183338N,-112.972954W,947.20,9.73,17
1737373,25.22,905.71,0,24.11,-6.03,4.04,-2.60,4:19:54,34.183300N,-112.972977W,947.00,9.92,17
1738374,25.21,905.62,0,24.07,-8.35,4.30,-1.23,4:19:55,34.183266N,-112.973007W,946.90,9.55,17
1739375,25.21,905.62,0,24.13,-9.40,4.17,0.22,4:19:56,34.183228N,-112.973015W,946.80,9.74,15
1740376,25.21,905.53,0,24.11,-8.13,4.80,-1.54,4:19:57,34.183197N,-112.973045W,946.60,9.25,9
1741377,25.20,905.07,0,24.16,-8.37,4.47,-0.39,4:19:58,34.183147N,-112.973068W,946.50,10.13,12
1742378,25.21,905.07,0,24.14,-8.33,4.03,-1.68,4:19:59,34.183109N,-112.973083W,946.30,9.36,13
1743379,25.21,905.07,0,24.15,-7.43,3.03,0.46,4:20:0,34.183079N,-112.973091W,946.10,8.70,14
1744380,25.21,905.07,0,24.09,-9.13,4.30,-0.33,4:20:1,34.183048N,-112.973106W,945.80,7.76,14
1745381,25.21,904.98,0,24.10,-8.27,4.47,-1.10,4:20:2,34.183018N,-112.973122W,945.30,8.16,15
1746382,25.21,904.89,0,24.13,-7.69,4.04,-0.86,4:20:3,34.182983N,-112.973145W,944.80,8.53,16
1747383,25.20,904.80,0,24.07,-9.10,5.02,-1.27,4:20:4,34.182953N,-112.973160W,944.20,8.49,16
1748384,25.20,904.80,0,24.12,-8.31,3.95,-1.10,4:20:5,34.182922N,-112.973167W,943.50,8.59,16
1749385,25.20,904.71,0,24.11,-9.20,4.90,-1.82,4:20:6,34.182888N,-112.973183W,943.00,8.90,16
1750386,25.19,904.62,0,24.05,-8.07,4.63,-2.23,4:20:7,34.182858N,-112.973198W,942.60,8.93,16
1751387,25.19,904.53,0,24.07,-7.97,4.96,-1.44,4:20:8,34.182827N,-112.973221W,942.50,8.87,16
1752388,25.19,904.44,0,24.08,-8.57,4.90,-2.32,4:20:9,34.182796N,-112.973236W,942.40,8.85,17
1753389,25.18,904.34,0,24.05,-8.47,5.52,-0.58,4:20:10,34.182766N,-112.973259W,942.30,8.84,17
1754390,25.18,904.25,0,24.09,-8.58,5.36,-0.78,4:20:11,34.182732N,-112.973274W,942.10,8.00,17
1755391,25.18,904.07,0,24.05,-7.92,4.56,-1.16,4:20:12,34.182709N,-112.973274W,941.60,4.88,17
1756392,25.18,903.98,0,24.07,-8.21,4.18,-1.49,4:20:13,34.182690N,-112.973289W,941.40,3.71,17
1757393,25.19,903.71,0,24.08,-8.56,4.37,-1.54,4:20:14,34.182678N,-112.973289W,941.00,3.07,17
1758394,25.19,903.44,0,24.05,-8.42,3.87,-2.01,4:20:15,34.182671N,-112.973289W,940.60,3.00,17
1759395,25.20,903.44,0,24.02,-8.76,4.10,-1.97,4:20:16,34.182652N,-112.973297W,940.40,3.79,17
1760396,25.21,903.44,0,24.09,-8.50,4.22,-1.76,4:20:17,34.182632N,-112.973312W,940.20,5.47,17
1761397,25.21,903.34,0,24.08,-8.71,4.24,-1.48,4:20:18,34.182610N,-112.973328W,940.10,6.38,17
1762398,25.21,903.44,0,24.07,-8.62,4.29,-0.90,4:20:19,34.182587N,-112.973351W,939.90,6.71,17
1763399,25.21,903.53,0,24.07,-8.09,4.42,-1.39,4:20:20,34.182564N,-112.973366W,939.80,7.15,17
1764400,25.21,903.44,0,24.07,-8.51,4.60,-0.86,4:20:21,34.182533N,-112.973373W,940.00,7.57,17
1765401,25.21,903.53,0,24.10,-8.94,4.18,-1.03,4:20:22,34.182510N,-112.973404W,940.20,7.56,17
1766402,25.22,903.53,0,24.08,-8.85,4.53,-1.22,4:20:23,34.182484N,-112.973412W,940.10,7.35,17
1767403,25.22,903.53,0,24.09,-8.36,4.09,-0.99,4:20:24,34.182453N,-112.973442W,940.20,7.84,17
1768404,25.22,903.44,0,24.08,-7.57,4.09,-1.06,4:20:25,34.182430N,-112.973450W,940.20,7.77,17
1769405,25.22,903.44,0,24.07,-8.62,4.48,-1.75,4:20:26,34.182400N,-112.973480W,940.20,8.01,17
1770406,25.22,903.25,0,24.10,-8.35,4.66,-2.08,4:20:27,34.182373N,-112.973503W,940.20,8.51,17
1771407,25.22,903.16,0,24.07,-7.99,4.56,-1.84,4:20:28,34.182350N,-112.973503W,939.70,7.34,13
1772408,25.22,903.07,0,24.03,-8.87,4.80,-1.12,4:20:29,34.182327N,-112.973503W,939.60,7.55,13
1773409,25.22,903.07,0,24.16,-8.60,4.78,-0.95,4:20:30,34.182301N,-112.973503W,939.60,7.55,13
1774410,25.23,903.07,0,24.10,-8.10,3.71,-1.96,4:20:31,34.182270N,-112.973518W,939.50,8.09,14
1775411,25.23,902.98,0,24.06,-9.46,4.97,-1.59,4:20:32,34.182232N,-112.973518W,939.20,8.89,14
1776412,25.23,902.98,0,24.10,-8.01,4.79,-1.71,4:20:33,34.182194N,-112.973541W,938.80,9.36,15
1777413,25.23,902.98,0,24.06,-8.14,4.79,-1.50,4:20:34,34.182152N,-112.973572W,938.30,9.77,15
1778414,25.24,902.98,0,24.12,-7.68,4.58,-1.79,4:20:35,34.182114N,-112.973579W,937.90,9.55,16
1779415,25.24,902.80,0,24.14,-8.19,4.23,-1.39,4:20:36,34.182079N,-112.973610W,937.50,8.86,16
1780416,25.25,902.80,0,24.06,-8.59,4.98,-1.41,4:20:37,34.182049N,-112.973618W,937.20,8.45,16
1781417,25.25,902.71,0,24.06,-8.09,4.11,-1.44,4:20:38,34.182014N,-112.973633W,936.70,8.51,17
1782418,25.25,902.62,0,24.05,-8.38,4.41,-0.58,4:20:39,34.181984N,-112.973648W,936.30,8.53,17
1783419,25.26,902.53,0,24.08,-9.34,4.89,-1.19,4:20:40,34.181953N,-112.973656W,936.20,8.75,16
1784420,25.26,902.34,0,24.04,-8.32,4.69,-1.71,4:20:41,34.181919N,-112.973671W,936.20,8.68,17
1785421,25.27,902.34,0,24.10,-8.47,4.66,-2.08,4:20:42,34.181885N,-112.973686W,935.80,8.43,17
1786422,25.27,902.25,0,24.08,-8.16,4.24,-1.97,4:20:43,34.181850N,-112.973694W,935.70,7.78,16
1787423,25.28,902.34,0,24.07,-7.10,4.34,-2.42,4:20:44,34.181820N,-112.973724W,935.90,8.67,17
1788424,25.28,902.34,0,24.07,-7.97,4.74,-1.11,4:20:45,34.181793N,-112.973732W,935.60,8.29,17
1789425,25.28,902.25,0,24.04,-8.47,4.40,-1.79,4:20:46,34.181759N,-112.973747W,935.30,8.29,17
1790426,25.29,902.25,0,24.07,-7.98,4.42,-2.24,4:20:47,34.181728N,-112.973763W,935.10,7.82,17
1791427,25.29,902.16,0,24.08,-8.22,4.75,-2.58,4:20:48,34.181698N,-112.973763W,934.90,7.78,17
1792428,25.29,901.98,0,24.04,-8.39,3.97,-2.68,4:20:49,34.181671N,-112.973770W,934.50,7.59,17
1793429,25.30,901.89,0,24.07,-8.19,4.82,-1.57,4:20:50,34.181644N,-112.973785W,934.20,7.84,17
1794430,25.31,901.80,0,24.07,-7.38,3.71,-1.47,4:20:51,34.181614N,-112.973801W,934.30,7.88,17
1795431,25.31,901.53,0,24.05,-7.25,4.13,-2.52,4:20:52,34.181587N,-112.973808W,934.30,7.86,17
1796432,25.31,901.53,0,24.05,-8.00,4.69,-2.92,4:20:53,34.181557N,-112.973839W,934.30,7.54,17
1797433,25.32,901.62,0,24.04,-7.66,4.16,-2.90,4:20:54,34.181538N,-112.973846W,934.30,7.54,17
1798434,25.32,901.62,0,24.05,-8.19,4.28,-2.08,4:20:55,34.181511N,-112.973877W,934.30,7.86,17
1799435,25.32,901.53,0,24.05,-8.35,4.78,-2.08,4:20:56,34.181484N,-112.973900W,934.30,8.06,16
1800436,25.33,901.44,0,24.06,-9.20,4.96,-1.44,4:20:57,34.181458N,-112.973923W,934.30,8.09,5
1801437,25.33,901.35,0,24.03,-7.41,4.80,-2.75,4:20:58,34.181416N,-112.973953W,934.40,8.54,12
