time_since_start,bme_temp,bme_alt,uv,ism_temp,acc_x,acc_y,acc_z,gps_time,latitude,longitude,gps_alt,speed,sats
7508670,-10.38,18634.23,360,-13.77,-0.25,0.04,10.25,12:36:39,34.020592N,-113.407707W,19809.60,42.99,17
7509671,-9.98,18669.93,337,-13.77,0.33,-0.44,10.33,12:36:40,34.020638N,-113.407516W,19812.80,42.92,17
7510672,-9.89,18710.99,294,-13.76,-0.11,-0.25,10.31,12:36:41,34.020679N,-113.407310W,19816.70,43.36,17
7511673,-9.99,18733.35,321,-13.78,-0.45,0.21,10.22,12:36:42,34.020721N,-113.407104W,19821.20,44.99,17
7512674,-9.92,18756.65,362,-13.80,-0.10,-0.05,10.07,12:36:43,34.020767N,-113.406883W,19825.20,46.66,17
7513675,-10.00,18775.71,314,-13.75,-0.78,-0.42,9.97,12:36:44,34.020802N,-113.406670W,19829.20,47.12,17
7514676,-10.04,18793.96,357,-13.81,-0.39,0.10,9.81,12:36:45,34.020851N,-113.406464W,19833.10,47.12,17
7515677,-10.07,18857.83,375,-13.83,-0.12,-0.49,9.72,12:36:46,34.020901N,-113.406235W,19837.20,47.35,17
7516678,-10.10,18926.83,358,-13.80,-0.93,-0.19,9.83,12:36:47,34.020958N,-113.406013W,19841.20,48.57,17
7517679,-10.11,18988.54,358,-13.77,-0.64,0.09,10.19,12:36:48,34.021000N,-113.405785W,19844.40,49.10,17
7518680,-10.11,18962.53,353,-13.78,-0.28,-0.45,10.38,12:36:49,34.021057N,-113.405556W,19847.20,49.75,17
7519681,-10.11,18999.34,376,-13.82,-0.49,-0.90,10.47,12:36:50,34.021114N,-113.405312W,19849.90,50.34,17
7520682,-10.13,19075.48,361,-13.77,-0.17,-0.01,10.45,12:36:51,34.021160N,-113.405083W,19853.10,50.57,17
7521683,-10.15,19025.52,369,-13.79,-0.38,0.18,10.32,12:36:52,34.021214N,-113.404854W,19857.00,49.15,17
7522684,-10.15,18986.75,293,-13.84,-0.16,-0.13,10.09,12:36:53,34.021259N,-113.404633W,19861.20,47.08,17
7523685,-10.16,18957.16,323,-13.82,0.04,-0.42,9.73,12:36:54,34.021317N,-113.404419W,19865.70,45.96,17
7524686,-10.14,18933.06,345,-13.81,-0.13,-0.50,9.76,12:36:55,34.021374N,-113.404213W,19869.90,44.64,17
7525687,-10.10,18917.05,333,-13.82,-0.47,-0.65,9.96,12:36:56,34.021420N,-113.404007W,19873.80,42.97,17
7526688,-10.03,18777.45,343,-13.79,-0.94,-0.53,10.09,12:36:57,34.021477N,-113.403801W,19877.20,41.33,17
7527689,-9.56,18824.49,361,-13.84,-0.54,-0.18,10.10,12:36:58,34.021534N,-113.403610W,19880.10,41.34,17
7528690,-9.64,18858.71,314,-13.85,-0.88,-0.26,10.22,12:36:59,34.021591N,-113.403427W,19883.60,41.27,17
7529691,-9.68,18872.80,323,-13.81,-0.69,0.06,10.23,12:37:0,34.021641N,-113.403252W,19887.50,40.79,17
7530692,-9.76,18876.33,314,-13.82,0.13,0.02,10.25,12:37:1,34.021690N,-113.403061W,19891.50,41.11,17
7531693,-9.86,18877.21,321,-13.79,-0.12,-0.20,10.10,12:37:2,34.021751N,-113.402870W,19895.60,40.79,17
7532694,-9.89,18878.09,322,-13.83,-0.35,-0.48,10.04,12:37:3,34.021805N,-113.402672W,19899.30,43.02,17
7533695,-9.91,18881.62,356,-13.85,-0.39,-0.22,10.05,12:37:4,34.021870N,-113.402481W,19903.40,43.01,17
7534696,-9.90,18816.63,259,-13.84,-0.51,-0.21,9.97,12:37:5,34.021931N,-113.402290W,19907.50,44.09,17
7535697,-9.50,18931.28,355,-13.82,-0.72,-0.04,9.94,12:37:6,34.022011N,-113.402077W,19910.90,45.51,17
7536698,-9.59,18970.59,338,-13.86,-0.73,0.05,10.01,12:37:7,34.022083N,-113.401871W,19914.80,45.99,17
7537699,-9.63,18957.16,298,-13.85,-0.15,0.08,10.10,12:37:8,34.022144N,-113.401680W,19918.60,45.71,17
7538700,-9.67,18943.76,302,-13.86,-0.51,0.02,10.14,12:37:9,34.022205N,-113.401474W,19922.40,45.69,17
7539701,-9.68,18898.42,327,-13.89,-0.32,-0.05,10.15,12:37:10,34.022266N,-113.401253W,19926.20,45.46,17
7540702,-9.38,18821.00,371,-13.86,0.02,-0.36,10.22,12:37:11,34.022331N,-113.401062W,19929.20,43.82,17
7541703,-9.02,18916.16,352,-13.83,-0.27,-0.56,10.27,12:37:12,34.022396N,-113.400856W,19932.70,42.14,17
7542704,-9.18,18923.27,355,-13.86,0.11,-0.56,10.20,12:37:13,34.022461N,-113.400681W,19936.60,41.36,17
7543705,-9.31,18922.38,356,-13.90,-0.16,-0.70,10.08,12:37:14,34.022522N,-113.400497W,19940.80,41.38,17
7544706,-9.39,18917.94,406,-13.89,-0.03,-0.73,9.94,12:37:15,34.022587N,-113.400322W,19944.90,40.85,17
7545707,-9.40,18868.39,413,-13.86,-1.22,-0.55,9.81,12:37:16,34.022644N,-113.400131W,19948.60,39.89,17
7546708,-9.42,19009.26,366,-13.88,-0.06,-0.43,9.91,12:37:17,34.022694N,-113.399948W,19952.30,39.33,17
7547709,-9.41,19063.64,371,-13.86,-0.33,-0.17,10.15,12:37:18,34.022739N,-113.399780W,19955.70,39.03,17
7548710,-9.40,19091.93,325,-13.90,-0.20,-0.06,10.24,12:37:19,34.022785N,-113.399605W,19958.90,38.04,17
7549711,-9.39,19093.76,316,-13.86,-0.28,-0.68,10.33,12:37:20,34.022823N,-113.399422W,19962.00,37.38,17
7550712,-9.36,19011.06,367,-13.91,-0.84,-0.41,10.34,12:37:21,34.022873N,-113.399254W,19965.90,38.12,17
7551713,-9.33,18951.80,327,-13.86,0.10,0.04,10.31,12:37:22,34.022926N,-113.399063W,19969.50,39.51,17
7552714,-8.97,18844.65,366,-13.89,0.04,-0.63,10.13,12:37:23,34.022991N,-113.398888W,19973.60,40.14,17
7553715,-8.59,18818.38,337,-13.89,-0.46,-0.73,9.79,12:37:24,34.023048N,-113.398705W,19978.10,41.24,17
7554716,-8.37,18851.67,304,-13.83,-0.29,-0.20,9.72,12:37:25,34.023109N,-113.398529W,19982.60,41.06,17
7555717,-8.55,18880.74,312,-13.89,-0.39,-0.64,9.97,12:37:26,34.023167N,-113.398338W,19986.80,44.13,17
7556718,-8.68,18955.37,340,-13.88,-0.59,-0.44,10.19,12:37:27,34.023224N,-113.398132W,19990.80,44.21,17
7557719,-8.80,18941.08,327,-13.90,-0.86,-0.34,10.17,12:37:28,34.023289N,-113.397926W,19993.90,44.39,17
7558720,-8.64,18949.12,333,-13.84,-0.03,-0.19,10.24,12:37:29,34.023365N,-113.397720W,19997.60,44.82,17
7559721,-8.74,18989.44,342,-13.89,-0.53,-0.32,10.23,12:37:30,34.023430N,-113.397530W,20001.80,45.10,17
7560722,-8.81,18937.52,29,-13.91,0.00,-0.22,10.18,12:37:31,34.023502N,-113.397339W,20005.90,44.11,17
7561723,-8.85,18946.44,356,-13.92,-0.51,-0.29,10.04,12:37:32,34.023575N,-113.397118W,20009.20,43.38,17
7562724,-8.88,18960.74,333,-13.90,-0.52,-0.39,10.05,12:37:33,34.023621N,-113.396927W,20013.80,43.38,17
7563725,-8.89,19056.36,356,-13.86,-0.72,-0.05,10.07,12:37:34,34.023674N,-113.396736W,20018.20,43.69,17
7564726,-8.91,18886.04,371,-13.88,-0.45,-0.27,10.08,12:37:35,34.023720N,-113.396545W,20022.50,43.24,17
7565727,-8.88,18879.86,353,-13.89,-0.71,-0.19,10.08,12:37:36,34.023773N,-113.396324W,20025.70,42.29,17
7566728,-8.58,18910.84,323,-13.91,-0.17,-0.03,10.10,12:37:37,34.023819N,-113.396133W,20029.70,42.00,17
7567729,-8.63,18931.28,313,-13.86,-0.50,-0.44,10.14,12:37:38,34.023857N,-113.395943W,20034.30,40.65,17
7568730,-8.66,18954.48,337,-13.88,-0.07,-0.08,10.17,12:37:39,34.023903N,-113.395760W,20038.80,38.58,17
7569731,-8.68,19042.73,362,-13.91,0.00,-0.19,10.15,12:37:40,34.023956N,-113.395599W,20043.70,37.28,17
7570732,-8.72,19160.01,390,-13.91,-0.41,-0.11,10.11,12:37:41,34.023998N,-113.395432W,20047.60,36.91,17
7571733,-8.75,19067.28,371,-13.91,-0.11,0.24,10.14,12:37:42,34.024040N,-113.395248W,20051.50,36.50,17
7572734,-8.75,18949.12,318,-13.92,-0.52,-0.36,10.05,12:37:43,34.024094N,-113.395088W,20055.10,35.69,17
7573735,-8.35,18969.69,360,-13.92,-0.31,0.09,10.04,12:37:44,34.024124N,-113.394920W,20059.40,35.98,17
7574736,-8.42,18984.95,355,-13.88,-0.14,-0.11,10.16,12:37:45,34.024178N,-113.394753W,20063.30,36.54,17
7575737,-8.49,18993.04,299,-13.93,-0.22,-0.38,10.12,12:37:46,34.024231N,-113.394585W,20067.50,36.51,17
7576738,-8.57,19000.24,340,-13.89,-0.48,0.14,10.05,12:37:47,34.024292N,-113.394432W,20071.60,35.90,17
7577739,-8.62,19006.55,331,-13.92,-0.45,-0.04,10.01,12:37:48,34.024361N,-113.394279W,20075.60,36.20,17
7578740,-8.61,19012.87,294,-13.91,-0.47,-0.52,10.01,12:37:49,34.024433N,-113.394127W,20079.70,36.23,17
7579741,-8.60,19018.29,337,-13.90,-0.43,-0.28,9.94,12:37:50,34.024494N,-113.393959W,20083.80,36.04,17
7580742,-8.56,19018.29,269,-13.92,-0.14,-0.09,9.94,12:37:51,34.024555N,-113.393806W,20087.60,36.13,17
7581743,-8.53,19026.42,289,-13.89,-0.58,0.20,10.09,12:37:52,34.024628N,-113.393639W,20091.10,37.33,17
7582744,-8.48,19016.48,301,-13.91,-0.12,0.13,10.18,12:37:53,34.024715N,-113.393486W,20094.10,38.44,17
7583745,-8.31,19025.52,348,-13.91,-0.32,-0.45,10.33,12:37:54,34.024788N,-113.393333W,20098.30,38.81,17
7584746,-8.42,19031.86,333,-13.92,-0.37,-0.34,10.42,12:37:55,34.024864N,-113.393181W,20102.70,39.13,17
7585747,-8.51,19007.45,369,-13.91,-0.44,-0.27,10.31,12:37:56,34.024940N,-113.393013W,20107.00,39.46,17
7586748,-8.35,19021.00,352,-13.92,-0.27,-0.40,10.18,12:37:57,34.025024N,-113.392845W,20110.80,39.06,17
7587749,-8.47,19030.95,309,-13.92,-0.40,-0.34,10.14,12:37:58,34.025093N,-113.392693W,20115.70,38.26,17
7588750,-8.50,18964.32,350,-13.93,-0.61,-0.40,9.92,12:37:59,34.025169N,-113.392525W,20120.50,38.18,17
7589751,-8.13,18890.46,325,-13.92,-0.43,0.11,9.68,12:38:0,34.025242N,-113.392357W,20125.20,38.51,17
7590752,-7.90,18835.00,9,-13.92,-0.37,-0.01,9.65,12:38:1,34.025318N,-113.392204W,20129.60,39.06,17
7591753,-7.98,18778.31,15,-13.90,-0.38,-0.18,9.86,12:38:2,34.025402N,-113.392029W,20133.30,39.76,17
7592754,-8.10,18792.22,376,-13.91,-0.42,-0.49,10.12,12:38:3,34.025490N,-113.391861W,20136.80,40.65,17
7593755,-8.22,18969.69,358,-13.92,-0.42,-0.16,10.34,12:38:4,34.025570N,-113.391693W,20140.70,41.53,17
7594756,-8.29,19004.75,347,-13.93,-0.72,-0.06,10.39,12:38:5,34.025658N,-113.391525W,20145.00,41.83,17
7595757,-8.35,19029.14,330,-13.93,-0.40,0.04,10.28,12:38:6,34.025734N,-113.391350W,20148.90,41.53,17
7596758,-8.40,19044.55,370,-13.92,-0.10,0.14,10.11,12:38:7,34.025814N,-113.391182W,20153.30,41.31,17
7597759,-8.42,19019.19,357,-13.89,-0.40,0.07,9.90,12:38:8,34.025890N,-113.390999W,20157.40,42.06,17
7598760,-8.15,18961.63,355,-13.92,-0.26,0.00,9.83,12:38:9,34.025970N,-113.390808W,20161.40,42.06,17
7599761,-8.26,19082.79,352,-13.91,-0.16,-0.33,9.89,12:38:10,34.026047N,-113.390633W,20165.20,42.48,17
7600762,-8.34,19091.93,316,-13.92,-0.20,-0.38,9.97,12:38:11,34.026123N,-113.390450W,20170.10,43.58,17
7601763,-8.40,19096.50,369,-13.91,-0.03,-0.45,10.13,12:38:12,34.026203N,-113.390259W,20173.90,45.00,17
7602764,-8.41,18927.72,399,-13.93,0.29,-0.31,10.24,12:38:13,34.026283N,-113.390053W,20177.20,45.35,17
7603765,-8.29,19035.48,332,-13.93,-0.01,-0.23,10.31,12:38:14,34.026363N,-113.389847W,20180.40,44.70,17
7604766,-8.34,19054.54,313,-13.94,-0.03,0.07,10.36,12:38:15,34.026421N,-113.389671W,20185.00,44.47,17
7605767,-8.37,19072.75,316,-13.92,0.05,-0.00,10.31,12:38:16,34.026478N,-113.389465W,20188.30,44.16,17
7606768,-8.38,19015.58,355,-13.93,-0.27,-0.20,10.23,12:38:17,34.026543N,-113.389259W,20192.90,44.50,17
7607769,-7.99,18869.27,11,-13.93,-0.52,-0.32,10.23,12:38:18,34.026600N,-113.389069W,20198.00,41.82,17
7608770,-7.94,18803.54,425,-13.92,-0.43,-0.22,10.05,12:38:19,34.026665N,-113.388878W,20202.50,41.54,17
7609771,-8.03,18959.84,414,-13.91,-0.14,0.30,9.86,12:38:20,34.026737N,-113.388687W,20207.00,41.16,17
7610772,-8.12,19160.01,389,-13.92,0.01,0.34,9.76,12:38:21,34.026787N,-113.388504W,20211.60,40.03,17
7611773,-8.19,19273.06,351,-13.92,0.28,-0.07,9.90,12:38:22,34.026817N,-113.388329W,20216.40,38.58,17
7612774,-8.20,19251.41,343,-13.91,0.14,-0.38,10.22,12:38:23,34.026855N,-113.388161W,20220.80,37.73,17
7613775,-8.22,19222.34,289,-13.92,0.02,-0.29,10.17,12:38:24,34.026882N,-113.387978W,20225.10,37.02,17
7614776,-8.27,19184.12,338,-13.93,-0.28,-0.00,10.17,12:38:25,34.026913N,-113.387802W,20228.90,36.11,17
7615777,-8.05,19056.36,355,-13.92,-0.77,-0.31,10.24,12:38:26,34.026958N,-113.387650W,20232.60,35.24,17
7616778,-7.74,19007.45,356,-13.94,-0.32,-0.36,10.01,12:38:27,34.026997N,-113.387466W,20236.80,36.03,17
7617779,-7.45,19043.64,319,-13.92,0.28,-0.65,9.89,12:38:28,34.027042N,-113.387306W,20241.00,37.80,17
7618780,-7.59,19076.40,331,-13.93,-0.78,-0.98,9.96,12:38:29,34.027084N,-113.387123W,20245.00,39.46,17
7619781,-7.74,18964.32,333,-13.93,-0.44,-0.40,10.13,12:38:30,34.027130N,-113.386948W,20249.20,40.72,17
7620782,-7.44,19014.67,346,-13.93,-0.45,0.15,10.28,12:38:31,34.027176N,-113.386749W,20252.90,42.36,17
7621783,-7.62,19049.99,318,-13.92,-0.40,-0.27,10.21,12:38:32,34.027218N,-113.386551W,20256.70,43.39,17
7622784,-7.74,19090.10,333,-13.94,-0.13,-0.25,10.10,12:38:33,34.027256N,-113.386345W,20260.30,42.86,17
7623785,-7.84,19223.28,365,-13.93,-0.27,-0.78,10.02,12:38:34,34.027298N,-113.386139W,20264.30,41.80,17
7624786,-7.94,19347.10,391,-13.93,-0.48,-0.43,9.96,12:38:35,34.027344N,-113.385948W,20268.60,41.08,17
7625787,-8.01,19379.67,406,-13.92,0.04,0.41,9.89,12:38:36,34.027386N,-113.385750W,20272.50,40.79,17
7626788,-8.06,19260.81,435,-13.93,0.11,0.20,9.83,12:38:37,34.027420N,-113.385551W,20276.50,40.50,17
7627789,-8.05,19137.85,400,-13.92,-0.56,-0.25,9.96,12:38:38,34.027451N,-113.385368W,20279.90,40.26,17
7628790,-7.64,19148.00,311,-13.93,-0.45,-0.19,10.35,12:38:39,34.027477N,-113.385162W,20283.10,40.56,17
7629791,-7.64,19159.09,298,-13.92,-0.34,-0.62,10.40,12:38:40,34.027489N,-113.384987W,20286.70,41.38,17
7630792,-7.70,19177.62,343,-13.93,-0.21,-0.69,10.35,12:38:41,34.027493N,-113.384781W,20290.40,40.64,17
7631793,-7.78,19183.20,308,-13.94,-0.72,-0.01,10.18,12:38:42,34.027515N,-113.384605W,20294.70,40.20,17
7632794,-7.71,19196.21,353,-13.91,-0.08,-0.45,9.90,12:38:43,34.027538N,-113.384407W,20298.10,40.16,17
7633795,-7.78,19020.09,364,-13.93,0.35,-0.14,9.67,12:38:44,34.027561N,-113.384216W,20303.00,41.18,17
7634796,-7.74,19067.28,306,-13.93,-0.35,-0.77,9.64,12:38:45,34.027596N,-113.384010W,20306.50,41.74,17
7635797,-7.80,19187.84,360,-13.93,-0.12,-0.52,9.66,12:38:46,34.027618N,-113.383820W,20309.70,42.18,17
7636798,-7.84,19276.84,380,-13.93,-0.29,-0.06,9.86,12:38:47,34.027649N,-113.383614W,20313.20,43.81,17
7637799,-7.87,19323.27,365,-13.92,-0.22,-0.09,9.94,12:38:48,34.027672N,-113.383400W,20315.20,44.54,17
7638800,-7.88,19124.95,372,-13.95,-0.49,-0.49,10.03,12:38:49,34.027695N,-113.383179W,20317.30,44.04,17
7639801,-7.76,19096.50,340,-13.93,-0.97,0.16,10.13,12:38:50,34.027718N,-113.382973W,20319.30,42.81,17
7640802,-7.38,19060.00,361,-13.93,-0.38,-0.27,10.29,12:38:51,34.027740N,-113.382774W,20321.40,42.16,17
7641803,-7.03,19101.08,399,-13.93,-0.04,-0.96,10.49,12:38:52,34.027760N,-113.382568W,20324.10,41.64,17
7642804,-7.16,19143.38,342,-13.93,-0.55,-0.35,10.53,12:38:53,34.027771N,-113.382378W,20327.10,40.88,17
7643805,-7.25,19295.74,362,-13.93,-0.56,-0.40,10.45,12:38:54,34.027794N,-113.382179W,20331.50,41.16,17
7644806,-7.34,19199.94,13,-13.95,-0.23,-0.29,10.41,12:38:55,34.027809N,-113.381981W,20334.60,41.57,17
7645807,-7.39,19178.55,328,-13.94,-0.29,-0.50,10.26,12:38:56,34.027828N,-113.381775W,20337.80,41.30,17
7646808,-7.13,19189.70,357,-13.95,-0.28,0.26,10.19,12:38:57,34.027836N,-113.381584W,20341.70,39.23,17
7647809,-7.22,19202.74,340,-13.94,0.16,0.15,10.02,12:38:58,34.027836N,-113.381401W,20346.60,37.29,17
7648810,-7.30,19213.93,322,-13.92,-0.37,-0.53,9.94,12:38:59,34.027859N,-113.381233W,20350.80,35.65,17
7649811,-7.37,19221.41,337,-13.95,-0.67,-0.47,9.92,12:39:0,34.027870N,-113.381065W,20354.90,34.06,17
7650812,-7.39,19227.96,314,-13.95,-0.34,-0.25,9.91,12:39:1,34.027878N,-113.380913W,20358.70,32.53,17
7651813,-7.38,19237.33,353,-13.93,-0.28,-0.16,9.85,12:39:2,34.027893N,-113.380753W,20362.50,32.47,17
7652814,-7.40,19071.84,382,-13.93,-0.16,-0.11,10.02,12:39:3,34.027905N,-113.380592W,20366.10,32.72,17
7653815,-7.32,19110.25,364,-13.94,-0.14,-0.27,10.15,12:39:4,34.027916N,-113.380432W,20368.90,32.18,17
7654816,-7.33,19227.02,337,-13.93,-0.20,-0.81,10.12,12:39:5,34.027931N,-113.380272W,20372.10,31.56,17
7655817,-7.32,19242.02,311,-13.93,-0.12,-0.42,10.14,12:39:6,34.027946N,-113.380135W,20376.20,31.22,17
7656818,-7.33,19248.59,331,-13.94,-0.54,-0.40,10.19,12:39:7,34.027958N,-113.379997W,20380.50,31.30,17
7657819,-7.33,19257.05,298,-13.93,-0.67,-0.45,10.25,12:39:8,34.027969N,-113.379837W,20383.60,30.95,17
7658820,-7.30,19261.75,367,-13.93,-0.08,-0.01,10.19,12:39:9,34.027988N,-113.379684W,20387.60,31.31,17
7659821,-7.26,19265.52,337,-13.93,-0.18,-0.17,10.13,12:39:10,34.028004N,-113.379532W,20391.50,31.07,17
7660822,-7.16,19271.18,350,-13.92,-0.20,-0.45,10.03,12:39:11,34.028030N,-113.379379W,20395.20,33.29,17
7661823,-7.19,19277.78,356,-13.95,-0.37,-0.31,9.97,12:39:12,34.028046N,-113.379211W,20398.80,33.68,17
7662824,-7.18,19122.20,370,-13.94,-0.80,-0.51,9.91,12:39:13,34.028057N,-113.379059W,20402.80,34.08,17
7663825,-7.12,19270.23,375,-13.95,-0.35,-0.36,9.76,12:39:14,34.028088N,-113.378891W,20406.30,34.78,17
7664826,-7.13,19279.67,287,-13.93,-0.71,-0.35,9.79,12:39:15,34.028107N,-113.378723W,20410.20,35.50,17
7665827,-7.13,19281.56,313,-13.93,-0.17,-0.56,10.00,12:39:16,34.028122N,-113.378563W,20413.60,35.91,17
7666828,-7.12,19224.21,362,-13.92,-0.52,-0.40,10.26,12:39:17,34.028141N,-113.378380W,20416.60,36.41,17
7667829,-7.09,19249.53,330,-13.94,-0.31,-0.31,10.39,12:39:18,34.028175N,-113.378204W,20419.80,36.41,17
7668830,-7.08,19263.64,367,-13.93,-0.60,-0.21,10.39,12:39:19,34.028191N,-113.378036W,20423.20,36.10,17
7669831,-7.07,19189.70,10,-13.92,-0.51,-0.40,10.41,12:39:20,34.028217N,-113.377869W,20426.30,35.21,17
7670832,-6.62,19314.71,351,-13.94,-0.52,-0.57,10.26,12:39:21,34.028248N,-113.377701W,20429.90,33.93,17
7671833,-6.71,19320.42,356,-13.93,-0.41,-0.35,9.92,12:39:22,34.028278N,-113.377533W,20433.90,32.90,17
7672834,-6.80,19318.52,347,-13.94,-0.45,-0.60,9.68,12:39:23,34.028294N,-113.377396W,20438.20,31.89,17
7673835,-6.86,19320.42,336,-13.95,-0.48,-0.16,9.77,12:39:24,34.028324N,-113.377251W,20441.80,30.65,17
7674836,-6.88,19189.70,260,-13.93,-0.87,-0.35,9.94,12:39:25,34.028358N,-113.377098W,20445.70,29.56,17
7675837,-6.45,19049.09,107,-13.93,-0.15,-0.19,10.13,12:39:26,34.028389N,-113.376976W,20449.10,29.15,17
7676838,-6.30,18941.97,406,-13.97,0.10,-0.10,10.27,12:39:27,34.028419N,-113.376831W,20452.00,28.58,17
7677839,-6.32,19121.28,358,-13.95,-0.51,-0.16,10.42,12:39:28,34.028458N,-113.376701W,20455.30,27.97,17
7678840,-6.42,19280.61,364,-13.95,-0.32,-0.71,10.36,12:39:29,34.028492N,-113.376564W,20459.20,28.04,17
7679841,-6.49,19400.84,377,-13.93,-0.38,-0.05,10.19,12:39:30,34.028515N,-113.376434W,20463.00,29.41,17
7680842,-6.54,19391.21,347,-13.95,-0.44,-0.21,9.98,12:39:31,34.028545N,-113.376297W,20467.30,30.64,17
7681843,-6.60,19387.36,312,-13.95,-0.17,-0.33,9.85,12:39:32,34.028572N,-113.376152W,20471.40,31.56,17
7682844,-6.64,19458.97,376,-13.95,-0.26,-0.38,9.89,12:39:33,34.028606N,-113.376015W,20475.60,32.78,17
7683845,-6.67,19274.95,400,-13.92,0.11,0.11,10.03,12:39:34,34.028641N,-113.375847W,20479.40,34.63,17
7684846,-6.66,19264.58,387,-13.95,-0.19,0.03,10.07,12:39:35,34.028679N,-113.375664W,20482.40,35.47,17
7685847,-6.69,19272.12,343,-13.93,-0.79,-0.27,10.16,12:39:36,34.028713N,-113.375504W,20485.70,35.72,17
7686848,-6.47,19292.90,312,-13.95,0.05,-0.01,10.25,12:39:37,34.028740N,-113.375351W,20489.40,35.73,17
7687849,-6.50,19309.02,328,-13.93,-0.48,-0.45,10.20,12:39:38,34.028763N,-113.375183W,20493.90,35.97,17
7688850,-6.52,19324.22,342,-13.95,-0.48,-0.40,10.10,12:39:39,34.028797N,-113.375015W,20497.60,36.36,17
7689851,-6.52,19422.09,366,-13.93,-0.24,-0.68,9.99,12:39:40,34.028839N,-113.374863W,20501.20,33.30,17
7690852,-6.55,19386.40,371,-13.95,-0.31,-0.36,9.91,12:39:41,34.028885N,-113.374695W,20504.40,32.41,17
7691853,-6.56,19513.75,358,-13.95,-0.27,0.16,9.89,12:39:42,34.028931N,-113.374550W,20507.70,31.39,17
7692854,-6.55,19379.67,19,-13.98,-0.13,-0.48,10.00,12:39:43,34.028969N,-113.374413W,20511.80,29.95,17
7693855,-6.51,19374.87,297,-13.94,-0.56,-0.01,10.08,12:39:44,34.029018N,-113.374283W,20514.90,29.02,17
7694856,-6.37,19377.75,355,-13.93,-0.14,-0.32,10.01,12:39:45,34.029060N,-113.374153W,20518.50,28.92,17
7695857,-6.38,19379.67,326,-13.96,-0.45,-0.69,10.10,12:39:46,34.029087N,-113.374031W,20521.60,28.98,17
7696858,-6.41,19458.97,358,-13.94,-0.17,-0.41,10.14,12:39:47,34.029137N,-113.373886W,20524.90,28.99,17
7697859,-6.41,19403.73,314,-13.93,-0.73,-0.11,10.13,12:39:48,34.029190N,-113.373756W,20527.70,29.63,17
7698860,-6.09,19399.88,328,-13.94,-0.20,-0.34,10.11,12:39:49,34.029240N,-113.373619W,20530.70,30.09,17
7699861,-6.16,19405.66,328,-13.95,-0.44,-0.31,10.12,12:39:50,34.029282N,-113.373489W,20534.20,30.27,17
7700862,-6.21,19349.97,390,-13.95,-0.25,-0.60,10.22,12:39:51,34.029327N,-113.373375W,20538.20,29.32,17
7701863,-6.23,19301.43,348,-13.95,-0.61,-0.33,10.28,12:39:52,34.029381N,-113.373238W,20541.10,29.29,17
7702864,-5.86,19241.08,343,-13.95,0.07,0.00,10.31,12:39:53,34.029434N,-113.373108W,20544.90,29.93,17
7703865,-5.54,19215.80,365,-13.94,0.03,-0.22,10.21,12:39:54,34.029480N,-113.372978W,20549.20,30.54,17
7704866,-5.33,19128.63,196,-13.94,-0.51,-0.22,10.06,12:39:55,34.029526N,-113.372841W,20552.90,31.12,17
7705867,-5.11,19238.26,397,-13.93,-0.43,-0.28,10.06,12:39:56,34.029575N,-113.372696W,20556.90,32.45,17
7706868,-5.43,19421.12,367,-13.93,-0.29,0.10,10.17,12:39:57,34.029617N,-113.372559W,20561.00,33.84,17
7707869,-5.66,19534.43,357,-13.94,-0.06,0.00,10.16,12:39:58,34.029659N,-113.372406W,20565.40,33.83,17
7708870,-5.82,19614.88,357,-13.93,0.04,-0.70,10.04,12:39:59,34.029701N,-113.372246W,20569.20,33.36,17
7709871,-5.95,19643.95,342,-13.95,-0.43,-0.50,9.76,12:40:0,34.029755N,-113.372093W,20573.80,33.62,17
7710872,-6.06,19595.90,343,-13.95,-0.82,-0.33,9.62,12:40:1,34.029800N,-113.371933W,20578.00,34.38,17
7711873,-6.17,19566.08,340,-13.97,-0.74,-0.28,9.66,12:40:2,34.029846N,-113.371788W,20581.80,34.75,17
7712874,-6.28,19539.36,308,-13.95,0.00,-0.37,9.85,12:40:3,34.029896N,-113.371620W,20585.50,35.53,17
7713875,-6.38,19512.77,316,-13.96,-0.07,-0.34,10.16,12:40:4,34.029957N,-113.371468W,20588.70,37.22,17
7714876,-6.40,19493.15,311,-13.94,-0.30,-0.34,10.28,12:40:5,34.030014N,-113.371300W,20590.80,38.25,17
7715877,-6.39,19482.39,336,-13.95,-0.59,-0.37,10.34,12:40:6,34.030075N,-113.371140W,20593.30,37.73,17
7716878,-6.35,19314.71,389,-13.95,-0.70,-0.83,10.48,12:40:7,34.030148N,-113.370972W,20596.40,38.34,17
7717879,-6.29,19359.53,389,-13.95,-0.44,-0.05,10.53,12:40:8,34.030216N,-113.370804W,20599.80,36.61,17
7718880,-6.30,19454.11,307,-13.92,-0.82,0.02,10.35,12:40:9,34.030281N,-113.370651W,20603.10,36.23,17
7719881,-6.32,19457.02,317,-13.95,-0.39,-0.34,10.13,12:40:10,34.030342N,-113.370506W,20607.90,35.59,17
7720882,-6.34,19458.00,357,-13.97,-0.55,-0.11,9.99,12:40:11,34.030411N,-113.370354W,20612.20,35.37,17
7721883,-6.34,19375.83,371,-13.93,-0.28,-0.38,10.03,12:40:12,34.030479N,-113.370201W,20616.00,35.38,17
7722884,-6.33,19505.89,358,-13.95,-0.18,-0.13,10.04,12:40:13,34.030552N,-113.370049W,20620.00,34.50,17
7723885,-6.33,19591.92,342,-13.95,-0.09,-0.56,9.99,12:40:14,34.030621N,-113.369904W,20625.00,33.07,17
7724886,-6.30,19572.03,365,-13.94,-0.57,-0.75,10.01,12:40:15,34.030685N,-113.369781W,20629.20,32.48,17
7725887,-6.28,19467.74,316,-13.94,-0.05,0.01,10.01,12:40:16,34.030754N,-113.369637W,20633.30,33.02,17
7726888,-5.83,19429.83,322,-13.93,0.36,-0.05,10.01,12:40:17,34.030827N,-113.369499W,20637.30,34.28,17
7727889,-5.60,19429.83,307,-13.94,-0.11,-0.30,10.05,12:40:18,34.030903N,-113.369354W,20640.80,35.67,17
7728890,-5.52,19441.47,340,-13.95,-0.37,-0.00,10.16,12:40:19,34.030979N,-113.369202W,20644.20,37.73,17
7729891,-5.64,19452.16,319,-13.95,-0.44,-0.36,10.16,12:40:20,34.031040N,-113.369034W,20648.30,39.39,17
7730892,-5.72,19460.92,327,-13.95,-0.46,-0.48,10.11,12:40:21,34.031105N,-113.368874W,20652.60,40.16,17
7731893,-5.76,19467.74,291,-13.95,-0.17,-0.10,10.12,12:40:22,34.031174N,-113.368690W,20656.80,39.57,17
7732894,-5.79,19475.55,338,-13.94,0.12,-0.31,10.14,12:40:23,34.031239N,-113.368523W,20660.50,38.58,17
7733895,-5.80,19489.23,340,-13.98,-0.31,-0.44,10.08,12:40:24,34.031311N,-113.368355W,20665.00,37.71,17
7734896,-5.82,19509.82,326,-13.97,-0.54,-0.03,10.04,12:40:25,34.031380N,-113.368202W,20669.10,36.51,17
7735897,-5.85,19516.70,353,-13.95,-0.24,-0.31,9.94,12:40:26,34.031433N,-113.368050W,20672.60,35.32,17
7736898,-5.88,19514.73,317,-13.95,-0.28,-0.07,9.90,12:40:27,34.031509N,-113.367912W,20677.10,34.23,17
7737899,-5.91,19512.77,325,-13.96,-0.62,-0.24,9.98,12:40:28,34.031567N,-113.367760W,20680.70,33.01,17
7738900,-5.93,19515.72,361,-13.95,-0.43,0.11,10.10,12:40:29,34.031628N,-113.367615W,20684.00,31.50,17
7739901,-5.95,19521.62,327,-13.93,-0.11,-0.32,10.21,12:40:30,34.031685N,-113.367485W,20688.20,29.95,17
7740902,-5.97,19521.62,311,-13.94,0.05,-0.26,10.30,12:40:31,34.031742N,-113.367363W,20691.80,28.96,17
7741903,-5.95,19520.64,341,-13.95,-0.47,-0.39,10.26,12:40:32,34.031803N,-113.367249W,20695.30,28.57,17
7742904,-5.97,19529.50,347,-13.96,-0.56,-0.30,10.17,12:40:33,34.031857N,-113.367126W,20699.00,28.63,17
7743905,-5.95,19534.43,346,-13.95,-0.32,-0.40,10.00,12:40:34,34.031921N,-113.367012W,20703.30,29.28,17
7744906,-6.00,19536.40,342,-13.96,-0.40,-0.20,9.85,12:40:35,34.031982N,-113.366890W,20707.00,29.68,17
7745907,-6.00,19549.24,333,-13.94,-0.29,0.07,9.70,12:40:36,34.032047N,-113.366768W,20711.10,29.68,17
7746908,-5.99,19563.10,311,-13.93,-0.01,-0.02,9.72,12:40:37,34.032108N,-113.366653W,20714.80,29.09,17
7747909,-5.99,19568.06,313,-13.95,0.30,-0.42,9.93,12:40:38,34.032169N,-113.366531W,20718.00,28.49,17
7748910,-6.01,19566.08,341,-13.95,-0.06,-0.37,10.10,12:40:39,34.032238N,-113.366425W,20720.70,28.15,17
7749911,-6.03,19565.09,319,-13.95,-0.67,-0.35,10.16,12:40:40,34.032299N,-113.366310W,20723.60,28.25,17
7750912,-6.03,19561.12,328,-13.96,-0.59,-0.52,10.16,12:40:41,34.032372N,-113.366196W,20726.70,29.17,17
7751913,-6.01,19556.17,325,-13.95,-0.22,-0.38,10.23,12:40:42,34.032444N,-113.366081W,20729.70,30.51,17
7752914,-5.97,19551.22,319,-13.95,-0.26,0.00,10.33,12:40:43,34.032520N,-113.365967W,20732.60,31.74,17
7753915,-5.94,19549.24,360,-13.93,-0.60,-0.20,10.29,12:40:44,34.032597N,-113.365837W,20735.70,32.12,17
7754916,-5.91,19548.25,307,-13.95,-0.22,0.06,10.20,12:40:45,34.032677N,-113.365707W,20739.00,32.12,17
7755917,-5.89,19553.20,352,-13.95,-0.07,-0.08,10.05,12:40:46,34.032749N,-113.365593W,20741.90,31.54,17
7756918,-5.85,19604.88,346,-13.93,-0.45,-0.29,9.86,12:40:47,34.032822N,-113.365463W,20746.00,31.32,17
7757919,-5.82,19747.38,370,-13.95,-0.44,0.46,10.11,12:40:48,34.032898N,-113.365349W,20750.60,31.34,17
7758920,-5.79,19737.16,392,-13.96,-0.48,0.15,10.25,12:40:49,34.032967N,-113.365211W,20753.40,32.30,17
7759921,-5.75,19637.92,336,-13.94,-0.65,-0.05,10.18,12:40:50,34.033035N,-113.365067W,20755.90,33.15,17
7760922,-5.34,19619.88,322,-13.96,-0.19,-0.02,10.35,12:40:51,34.033089N,-113.364929W,20759.60,34.16,17
7761923,-5.39,19610.88,313,-13.94,-0.44,-0.15,10.31,12:40:52,34.033154N,-113.364784W,20763.10,34.50,17
7762924,-5.42,19613.88,333,-13.96,-0.51,-0.11,10.19,12:40:53,34.033215N,-113.364632W,20767.60,34.45,17
7763925,-5.44,19659.04,351,-13.95,-0.09,-0.63,9.94,12:40:54,34.033291N,-113.364494W,20772.00,34.92,17
7764926,-5.50,19502.95,335,-13.94,-0.35,-0.25,9.80,12:40:55,34.033367N,-113.364349W,20775.70,33.01,17
7765927,-5.30,19482.39,299,-13.95,-0.16,-0.13,9.98,12:40:56,34.033443N,-113.364227W,20778.90,33.22,17
7766928,-5.03,19507.86,325,-13.95,0.01,-0.38,10.08,12:40:57,34.033524N,-113.364098W,20782.40,33.66,17
7767929,-5.14,19560.13,372,-13.95,-0.17,-0.49,10.05,12:40:58,34.033611N,-113.363968W,20786.20,33.97,17
7768930,-5.21,19721.86,382,-13.97,0.01,-0.03,10.09,12:40:59,34.033699N,-113.363853W,20790.10,34.67,17
7769931,-5.25,19727.98,391,-13.95,-0.12,0.20,10.13,12:41:0,34.033791N,-113.363724W,20793.60,35.13,17
7770932,-5.26,19513.75,381,-13.95,-0.48,-0.43,10.17,12:41:1,34.033886N,-113.363594W,20797.00,35.16,17
7771933,-4.93,19538.38,358,-13.95,-0.41,-0.05,10.15,12:41:2,34.033978N,-113.363457W,20800.40,34.55,17
7772934,-5.01,19553.20,358,-13.93,-0.47,-0.02,10.15,12:41:3,34.034065N,-113.363327W,20803.90,34.08,17
7773935,-5.06,19564.09,351,-13.95,0.01,-0.35,10.16,12:41:4,34.034138N,-113.363190W,20808.80,34.59,17
7774936,-5.12,19575.01,323,-13.95,0.08,-0.06,10.16,12:41:5,34.034229N,-113.363060W,20812.60,35.20,17
7775937,-5.15,19583.96,370,-13.94,-0.26,-0.20,10.11,12:41:6,34.034317N,-113.362930W,20816.40,35.76,17
7776938,-5.16,19591.92,408,-13.94,-0.46,-0.73,10.13,12:41:7,34.034405N,-113.362793W,20820.20,36.43,17
7777939,-5.16,19513.75,404,-13.93,-0.09,-0.43,9.99,12:41:8,34.034485N,-113.362640W,20823.80,37.28,17
7778940,-4.82,19471.64,396,-13.95,-0.46,-0.34,9.86,12:41:9,34.034569N,-113.362480W,20828.00,37.09,17
7779941,-4.88,19647.97,380,-13.97,-0.01,-0.59,9.92,12:41:10,34.034645N,-113.362328W,20831.90,36.12,17
7780942,-4.92,19721.86,332,-13.95,-0.27,-0.03,9.96,12:41:11,34.034706N,-113.362175W,20835.80,35.46,17
7781943,-4.94,19705.59,333,-13.95,-0.55,-0.40,10.12,12:41:12,34.034760N,-113.362022W,20839.40,35.39,17
7782944,-5.03,19695.44,342,-13.96,-0.22,-0.82,10.21,12:41:13,34.034813N,-113.361870W,20843.00,35.14,17
7783945,-5.19,19681.26,325,-13.95,-0.13,-0.26,10.28,12:41:14,34.034878N,-113.361717W,20846.60,35.39,17
7784946,-5.29,19669.13,364,-13.93,-0.43,-0.41,10.42,12:41:15,34.034943N,-113.361572W,20850.60,36.37,17
7785947,-5.30,19665.09,330,-13.94,-0.09,-0.40,10.39,12:41:16,34.035007N,-113.361404W,20854.60,37.04,17
7786948,-5.28,19665.09,365,-13.95,-0.29,-0.76,10.23,12:41:17,34.035088N,-113.361252W,20858.20,37.25,17
7787949,-5.27,19693.41,330,-13.95,0.11,-0.03,10.08,12:41:18,34.035172N,-113.361099W,20862.30,36.23,17
7788950,-5.26,19684.29,260,-13.95,-0.33,-0.18,10.01,12:41:19,34.035240N,-113.360970W,20867.20,36.27,17
7789951,-5.26,19670.14,244,-13.97,0.26,0.06,10.13,12:41:20,34.035320N,-113.360817W,20871.40,36.57,17
7790952,-5.26,19661.06,335,-13.94,-0.45,0.19,10.16,12:41:21,34.035419N,-113.360680W,20875.60,36.97,17
7791953,-5.11,19480.43,14,-13.97,-0.19,-0.18,10.23,12:41:22,34.035526N,-113.360550W,20879.50,37.48,17
7792954,-5.07,19348.06,399,-13.99,0.24,0.10,10.16,12:41:23,34.035633N,-113.360413W,20883.70,38.41,17
7793955,-5.07,19581.97,341,-13.95,-0.33,-0.19,9.85,12:41:24,34.035740N,-113.360268W,20888.20,39.02,17
7794956,-5.09,19609.88,352,-13.95,-0.11,0.03,9.59,12:41:25,34.035843N,-113.360138W,20893.90,38.22,17
7795957,-5.11,19627.89,317,-13.94,-0.14,0.17,9.50,12:41:26,34.035942N,-113.360016W,20899.00,37.32,17
7796958,-5.11,19637.92,298,-13.95,-0.19,-0.08,9.79,12:41:27,34.036041N,-113.359886W,20902.70,36.56,17
7797959,-5.09,19642.94,307,-13.95,0.19,0.23,10.18,12:41:28,34.036137N,-113.359756W,20905.60,36.57,17
7798960,-5.06,19657.03,328,-13.94,-0.18,-0.14,10.21,12:41:29,34.036251N,-113.359627W,20908.30,36.62,17
7799961,-5.04,19626.89,371,-13.95,0.29,-0.53,10.36,12:41:30,34.036366N,-113.359512W,20911.30,37.22,17
7800962,-4.77,19542.32,384,-13.96,-0.10,0.17,10.50,12:41:31,34.036476N,-113.359383W,20914.50,38.21,17
7801963,-4.81,19599.89,357,-13.96,-0.22,-0.46,10.54,12:41:32,34.036591N,-113.359245W,20918.40,39.03,17
7802964,-4.84,19634.91,330,-13.92,0.17,-0.19,10.45,12:41:33,34.036690N,-113.359131W,20922.80,38.96,17
7803965,-4.86,19663.08,331,-13.95,0.02,0.11,10.11,12:41:34,34.036800N,-113.359001W,20927.50,38.57,17
7804966,-4.89,19677.21,316,-13.94,0.02,-0.27,9.76,12:41:35,34.036900N,-113.358849W,20932.50,38.54,17
7805967,-4.91,19710.67,371,-13.95,-0.23,-0.44,9.71,12:41:36,34.037003N,-113.358704W,20936.70,38.73,17
7806968,-4.95,19842.30,353,-13.93,-0.44,0.22,9.88,12:41:37,34.037109N,-113.358582W,20941.70,38.77,17
7807969,-4.96,19902.95,362,-13.95,-0.85,0.38,9.92,12:41:38,34.037212N,-113.358429W,20945.20,39.66,17
