time_since_start,bme_temp,bme_alt,uv,ism_temp,acc_x,acc_y,acc_z,gps_time,latitude,longitude,gps_alt,speed,sats
301468,24.03,419.31,24,28.11,-8.71,-1.55,-3.80,10:36:32,33.664658N,-114.007439W,483.30,0.09,17
302469,24.01,419.39,24,28.09,-8.62,-1.32,-3.80,10:36:33,33.664658N,-114.007439W,483.30,0.06,17
303470,23.99,419.31,24,28.11,-8.62,-1.96,-4.01,10:36:34,33.664658N,-114.007439W,483.30,0.25,17
304471,23.97,419.31,24,28.09,-8.56,-1.74,-3.99,10:36:35,33.664658N,-114.007439W,483.30,0.13,17
305472,23.96,419.39,24,28.12,-8.71,-1.33,-3.86,10:36:36,33.664658N,-114.007446W,483.40,0.13,17
306473,23.94,419.39,24,28.11,-8.72,-1.75,-4.12,10:36:37,33.664658N,-114.007446W,483.40,0.06,17
307474,23.93,419.39,23,28.12,-8.34,-2.03,-4.41,10:36:38,33.664658N,-114.007446W,483.40,0.08,17
308475,23.92,419.39,23,28.11,-8.51,-1.79,-4.22,10:36:39,33.664658N,-114.007446W,483.40,0.07,17
309476,23.91,419.39,23,28.08,-8.68,-1.49,-4.30,10:36:41,33.664658N,-114.007439W,483.40,0.06,17
310477,23.91,419.39,24,28.11,-8.67,-1.17,-4.51,10:36:42,33.664658N,-114.007439W,483.40,0.13,17
311479,23.90,419.31,23,28.12,-8.45,-1.90,-4.64,10:36:43,33.664658N,-114.007439W,483.50,0.10,17
312479,23.90,419.39,24,28.10,-8.24,-1.59,-3.86,10:36:44,33.664658N,-114.007439W,483.50,0.16,17
313480,23.90,419.48,24,28.10,-8.78,-2.25,-4.15,10:36:45,33.664658N,-114.007439W,483.50,0.13,17
314481,23.91,419.39,23,28.10,-8.60,-2.00,-4.35,10:36:46,33.664658N,-114.007439W,483.60,0.05,17
315482,23.91,419.48,23,28.11,-8.73,-2.10,-4.36,10:36:47,33.664658N,-114.007439W,483.60,0.16,17
316483,23.92,419.39,23,28.14,-8.63,-2.39,-4.47,10:36:47,33.664658N,-114.007439W,483.60,0.06,17
317484,23.91,419.39,24,28.11,-9.12,-2.16,-3.43,10:36:48,33.664658N,-114.007439W,483.60,0.03,17
318485,23.91,419.48,21,28.09,-8.85,-2.88,-3.86,10:36:50,33.664658N,-114.007439W,483.70,0.06,17
319486,23.90,419.57,21,28.09,-9.73,-3.48,-2.14,10:36:51,33.664658N,-114.007446W,483.80,0.10,17
320487,23.89,419.57,20,28.08,-8.76,-2.08,-1.22,10:36:52,33.664658N,-114.007446W,483.80,0.09,17
321488,23.89,419.65,23,28.10,-9.48,-3.35,0.25,10:36:53,33.664658N,-114.007446W,483.80,0.13,17
322489,23.89,419.57,24,28.09,-9.04,-2.47,-2.45,10:36:54,33.664658N,-114.007446W,483.90,0.14,17
323490,23.88,419.83,25,28.12,-11.62,0.53,-2.13,10:36:54,33.664658N,-114.007446W,483.90,0.10,17
324491,23.88,419.83,23,28.11,-9.12,-2.32,-2.81,10:36:56,33.664658N,-114.007446W,484.00,0.10,17
325492,23.88,419.83,24,28.09,-8.53,-2.30,-3.41,10:36:57,33.664658N,-114.007446W,484.00,0.09,17
326493,23.87,419.74,23,28.10,-8.90,-1.88,-3.18,10:36:58,33.664658N,-114.007446W,484.00,0.14,17
327494,23.88,419.74,21,28.10,-9.09,-1.35,-3.20,10:36:59,33.664658N,-114.007446W,484.00,0.07,17
328495,23.87,419.74,23,28.11,-9.04,-1.68,-3.30,10:37:0,33.664658N,-114.007446W,484.10,0.08,17
329496,23.88,419.57,23,28.10,-8.99,-1.71,-3.64,10:37:1,33.664658N,-114.007446W,484.10,0.08,17
330497,23.87,419.48,23,28.12,-9.23,-1.79,-3.10,10:37:2,33.664658N,-114.007446W,484.20,0.25,17
331498,23.85,419.57,21,28.09,-9.83,-1.95,-3.01,10:37:3,33.664661N,-114.007446W,484.30,0.12,17
332499,23.83,419.65,23,28.09,-8.92,-1.20,-2.75,10:37:4,33.664661N,-114.007446W,484.30,0.14,17
333500,23.83,419.57,23,28.11,-9.61,-2.36,-2.37,10:37:5,33.664661N,-114.007446W,484.30,0.03,17
334501,23.83,419.65,23,28.12,-9.32,-1.93,-2.26,10:37:6,33.664661N,-114.007446W,484.20,0.03,17
335502,23.83,419.57,21,28.10,-9.79,-1.52,-1.79,10:37:7,33.664661N,-114.007446W,484.20,0.03,17
336503,23.83,419.57,21,28.12,-9.12,-2.13,-3.15,10:37:8,33.664661N,-114.007446W,484.20,0.03,16
337504,23.84,419.74,23,28.09,-9.23,-2.06,-2.77,10:37:9,33.664661N,-114.007446W,484.20,0.05,17
338505,23.85,419.65,26,28.11,-9.09,-1.51,-3.02,10:37:10,33.664661N,-114.007446W,484.20,0.06,17
339506,23.86,419.57,25,28.07,-9.36,-1.30,-2.36,10:37:11,33.664661N,-114.007446W,484.20,0.17,17
340507,23.86,419.48,24,28.12,-8.77,-1.33,-2.85,10:37:12,33.664661N,-114.007446W,484.20,0.16,17
341508,23.85,419.48,20,28.15,-9.80,-1.85,-2.79,10:37:13,33.664661N,-114.007446W,484.30,0.08,17
342509,23.85,419.48,24,28.11,-9.47,-0.85,-2.48,10:37:14,33.664661N,-114.007446W,484.30,0.15,17
343510,23.85,419.57,24,28.13,-9.02,-0.94,-2.78,10:37:15,33.664661N,-114.007446W,484.30,0.05,17
344511,23.85,419.57,23,28.13,-9.88,-1.41,-2.77,10:37:16,33.664661N,-114.007446W,484.30,0.10,17
345512,23.84,419.57,25,28.11,-8.83,-1.56,-3.80,10:37:17,33.664661N,-114.007446W,484.40,0.28,17
346513,23.82,419.48,28,28.13,-9.04,-1.45,-3.71,10:37:18,33.664661N,-114.007446W,484.60,0.23,17
347514,23.81,419.48,28,28.14,-9.11,-0.65,-3.29,10:37:19,33.664661N,-114.007446W,484.60,0.14,17
348515,23.80,419.39,26,28.12,-9.22,-0.67,-3.36,10:37:20,33.664665N,-114.007446W,484.60,0.06,17
349516,23.78,419.39,26,28.15,-9.54,-0.57,-3.47,10:37:21,33.664665N,-114.007446W,484.70,0.05,17
350517,23.75,419.39,26,28.15,-9.04,-0.74,-3.49,10:37:22,33.664665N,-114.007446W,484.70,0.06,17
351518,23.74,419.31,28,28.09,-9.34,-0.43,-3.59,10:37:23,33.664665N,-114.007446W,484.70,0.07,17
352519,23.73,419.48,23,28.13,-9.05,-0.83,-3.66,10:37:24,33.664665N,-114.007446W,484.70,0.02,17
353520,23.72,419.48,23,28.12,-8.75,0.01,-3.25,10:37:25,33.664665N,-114.007446W,484.70,0.03,17
354521,23.72,419.48,23,28.10,-9.00,0.13,-2.37,10:37:26,33.664665N,-114.007446W,484.70,0.01,17
355522,23.72,419.57,20,28.10,-9.50,-0.27,-3.64,10:37:27,33.664665N,-114.007446W,484.70,0.01,17
356523,23.73,419.65,21,28.10,-9.38,0.41,-2.13,10:37:28,33.664665N,-114.007446W,484.50,0.13,17
357524,23.72,419.65,20,28.13,-9.31,-0.03,-2.59,10:37:29,33.664665N,-114.007446W,484.50,0.22,17
358525,23.72,419.57,21,28.09,-9.73,0.40,-2.15,10:37:30,33.664665N,-114.007446W,484.50,0.29,17
359526,23.70,419.65,21,28.10,-9.38,0.37,-2.70,10:37:31,33.664665N,-114.007446W,484.50,0.17,17
360527,23.69,419.65,21,28.13,-9.18,0.21,-2.83,10:37:32,33.664665N,-114.007446W,484.70,0.06,17
361528,23.68,419.57,21,28.12,-9.82,-0.22,-2.94,10:37:33,33.664665N,-114.007446W,484.90,0.03,17
362529,23.66,419.57,21,28.12,-9.38,0.27,-2.73,10:37:34,33.664665N,-114.007446W,485.00,0.01,17
363530,23.65,419.65,21,28.16,-9.26,0.44,-2.95,10:37:35,33.664665N,-114.007446W,485.00,0.01,17
364531,23.65,419.65,21,28.12,-9.56,0.26,-2.92,10:37:36,33.664665N,-114.007446W,485.10,0.10,17
365532,23.64,419.65,21,28.14,-9.17,0.35,-3.02,10:37:37,33.664665N,-114.007446W,485.10,0.25,17
366533,23.64,419.65,21,28.10,-9.10,0.32,-2.90,10:37:38,33.664665N,-114.007446W,485.10,0.10,17
367534,23.64,419.65,20,28.14,-9.19,0.40,-2.76,10:37:39,33.664665N,-114.007446W,485.10,0.13,16
368535,23.64,419.57,21,28.12,-9.61,0.06,-1.95,10:37:40,33.664665N,-114.007446W,485.10,0.15,17
369536,23.63,419.57,26,28.11,-9.12,-0.58,-2.53,10:37:41,33.664665N,-114.007446W,485.20,0.12,17
370537,23.62,419.48,24,28.12,-10.33,-0.61,-1.28,10:37:42,33.664669N,-114.007446W,485.20,0.16,17
371538,23.61,419.39,29,28.10,-9.76,-2.34,-1.58,10:37:43,33.664669N,-114.007446W,485.20,0.33,17
372539,23.61,419.39,33,28.07,-9.18,-1.94,-3.10,10:37:44,33.664669N,-114.007446W,485.30,0.13,17
373540,23.60,419.39,31,28.13,-9.42,-2.06,-2.65,10:37:45,33.664669N,-114.007446W,485.30,0.21,16
374541,23.60,419.31,31,28.13,-9.23,-2.98,-3.51,10:37:46,33.664673N,-114.007446W,485.30,0.21,16
375543,23.60,419.39,26,28.15,-9.58,-1.73,-2.27,10:37:47,33.664673N,-114.007446W,485.30,0.13,15
376543,23.60,419.65,26,28.16,-9.15,-2.81,0.01,10:37:48,33.664673N,-114.007446W,485.30,0.13,16
377544,23.60,419.91,28,28.09,-9.94,-1.52,0.66,10:37:49,33.664673N,-114.007446W,485.30,0.49,16
378545,23.59,419.83,23,28.13,-9.38,-2.77,0.84,10:37:50,33.664669N,-114.007446W,485.30,0.22,16
379546,23.59,419.74,28,28.14,-9.29,-3.05,0.16,10:37:51,33.664669N,-114.007446W,485.40,0.08,16
380547,23.58,419.65,23,28.12,-9.04,-3.05,-0.32,10:37:52,33.664669N,-114.007446W,485.40,0.06,16
381548,23.55,419.83,30,28.13,-8.83,-3.52,-1.30,10:37:53,33.664669N,-114.007446W,485.40,0.06,17
382549,23.52,419.91,33,28.15,-9.07,-3.87,-1.70,10:37:54,33.664669N,-114.007446W,485.30,0.25,17
383550,23.50,420.00,33,28.16,-8.87,-3.64,-2.21,10:37:55,33.664669N,-114.007446W,485.20,0.10,16
384551,23.46,420.00,29,28.12,-9.04,-2.70,-0.99,10:37:56,33.664673N,-114.007446W,485.20,0.10,17
385552,23.43,420.00,40,28.12,-10.15,-2.13,1.42,10:37:57,33.664673N,-114.007446W,485.10,0.08,17
386553,23.41,419.91,29,28.11,-9.09,-2.46,3.98,10:37:58,33.664673N,-114.007446W,485.10,0.08,17
387554,23.39,419.65,26,28.12,-9.03,-1.71,3.17,10:37:59,33.664673N,-114.007446W,485.10,0.24,17
388555,23.36,419.65,24,28.12,-9.38,-2.02,1.74,10:38:0,33.664673N,-114.007446W,485.10,0.14,17
389556,23.32,419.65,14,28.12,-9.38,-2.00,2.29,10:38:1,33.664673N,-114.007446W,485.10,0.31,17
390557,23.29,419.57,15,28.08,-9.46,-2.10,2.53,10:38:2,33.664673N,-114.007446W,485.20,0.26,17
391558,23.26,419.48,13,28.13,-9.29,-2.40,3.43,10:38:3,33.664673N,-114.007446W,485.30,0.14,17
392559,23.25,419.57,4,28.13,-9.18,-2.41,3.41,10:38:4,33.664673N,-114.007446W,485.30,0.12,16
393560,23.24,419.39,6,28.12,-8.98,-1.92,3.00,10:38:5,33.664673N,-114.007446W,485.40,0.08,17
394561,23.22,419.05,6,28.11,-9.17,-1.92,3.50,10:38:6,33.664673N,-114.007446W,485.40,0.08,16
395562,23.23,418.87,10,28.12,-8.76,-2.04,2.51,10:38:7,33.664673N,-114.007446W,485.40,0.07,16
396563,23.23,418.70,5,28.11,-9.38,-2.02,3.06,10:38:8,33.664673N,-114.007446W,485.40,0.07,16
397564,23.23,418.70,10,28.10,-9.17,-1.71,3.20,10:38:9,33.664673N,-114.007446W,485.40,0.15,16
398566,23.22,418.61,11,28.11,-9.06,-1.79,3.03,10:38:10,33.664673N,-114.007446W,485.40,0.15,16
399566,23.22,418.53,5,28.14,-9.16,-1.26,2.65,10:38:11,33.664673N,-114.007446W,485.30,0.06,16
400567,23.22,418.61,11,28.08,-9.45,-2.01,3.26,10:38:12,33.664673N,-114.007446W,485.30,0.07,17
401568,23.22,418.53,8,28.09,-9.18,-1.73,2.98,10:38:13,33.664673N,-114.007446W,485.30,0.09,17
402569,23.23,418.44,6,28.10,-9.43,-1.65,2.76,10:38:14,33.664673N,-114.007446W,485.30,0.15,17
403570,23.25,418.53,10,28.10,-10.09,-2.19,2.57,10:38:15,33.664673N,-114.007446W,485.30,0.21,17
404571,23.25,418.61,8,28.10,-9.69,-1.48,2.88,10:38:16,33.664673N,-114.007439W,485.30,0.28,17
405572,23.23,418.70,9,28.11,-9.73,-1.13,2.71,10:38:17,33.664673N,-114.007439W,485.30,0.28,17
406573,23.22,418.87,6,28.12,-9.03,-1.27,2.45,10:38:18,33.664673N,-114.007439W,485.30,0.13,17
407574,23.21,418.96,42,28.14,-9.32,-1.96,3.30,10:38:19,33.664673N,-114.007439W,485.30,0.23,17
408575,23.20,419.05,42,28.15,-9.61,-1.38,3.06,10:38:20,33.664673N,-114.007439W,485.30,0.10,15
409576,23.19,419.05,42,28.10,-9.67,-1.31,3.11,10:38:21,33.664673N,-114.007439W,485.30,0.10,15
410577,23.19,419.13,42,28.16,-9.38,-1.65,3.06,10:38:22,33.664673N,-114.007439W,485.30,0.09,15
411578,23.19,419.13,40,28.09,-9.42,-1.42,2.89,10:38:23,33.664673N,-114.007439W,485.20,0.08,15
412579,23.20,419.05,38,28.12,-9.14,-1.68,3.00,10:38:24,33.664673N,-114.007439W,485.20,0.05,15
413580,23.20,418.70,42,28.10,-9.71,-2.24,3.40,10:38:25,33.664673N,-114.007439W,485.20,0.08,16
414581,23.19,418.79,42,28.12,-9.08,-0.61,3.52,10:38:26,33.664673N,-114.007439W,485.30,0.08,17
415582,23.17,419.05,0,28.09,-10.33,-0.68,2.06,10:38:27,33.664673N,-114.007439W,485.30,0.20,17
416583,23.15,418.96,91,28.11,-9.38,1.52,2.72,10:38:28,33.664673N,-114.007439W,485.20,0.14,17
417584,23.15,418.27,44,28.11,-8.98,1.11,3.43,10:38:29,33.664673N,-114.007439W,485.20,0.17,17
418585,23.17,416.27,45,28.09,-9.03,1.27,3.73,10:38:30,33.664673N,-114.007439W,485.20,0.06,17
419586,23.20,416.27,45,28.12,-9.09,1.23,3.76,10:38:31,33.664669N,-114.007439W,485.10,0.22,17
420587,23.24,416.36,84,28.15,-9.11,1.21,3.86,10:38:32,33.664673N,-114.007439W,485.20,0.14,17
421588,23.28,409.00,47,28.11,-8.53,1.02,3.76,10:38:33,33.664673N,-114.007439W,485.30,0.14,17
422589,23.33,403.02,47,28.13,-9.00,-0.68,4.11,10:38:34,33.664673N,-114.007439W,485.30,0.13,17
423590,23.39,399.99,45,28.15,-9.02,0.25,4.02,10:38:35,33.664669N,-114.007439W,485.30,0.14,17
424591,23.46,396.19,45,28.11,-9.07,0.12,4.02,10:38:36,33.664669N,-114.007439W,485.20,0.12,17
425592,23.51,391.34,45,28.13,-8.99,0.01,4.16,10:38:37,33.664669N,-114.007439W,485.30,0.06,17
426593,23.58,389.18,47,28.09,-9.07,-0.03,4.08,10:38:38,33.664669N,-114.007439W,485.30,0.05,17
427594,23.65,387.80,47,28.13,-9.20,0.28,3.96,10:38:39,33.664669N,-114.007439W,485.30,0.09,17
428595,23.72,387.63,47,28.13,-9.11,0.12,4.08,10:38:40,33.664669N,-114.007439W,485.30,0.06,17
429596,23.78,384.52,47,28.15,-9.03,0.12,4.12,10:38:41,33.664669N,-114.007439W,485.30,0.12,17
430597,23.84,389.27,19,28.13,-10.06,-0.26,2.37,10:38:42,33.664669N,-114.007439W,485.30,0.06,17
431598,23.91,392.47,103,28.12,-9.33,0.24,3.81,10:38:43,33.664669N,-114.007439W,485.20,0.07,17
432599,23.98,391.08,131,28.12,-8.42,0.20,4.48,10:38:44,33.664669N,-114.007439W,485.20,0.05,17
433600,24.06,379.85,135,28.15,-8.89,0.31,4.65,10:38:45,33.664669N,-114.007439W,485.20,0.02,17
434601,24.15,371.56,128,28.11,-8.67,0.36,4.85,10:38:46,33.664669N,-114.007439W,485.20,0.01,17
435602,24.24,329.97,141,28.12,-8.13,0.78,5.47,10:38:47,33.664669N,-114.007439W,485.20,0.02,17
436603,24.32,327.65,36,28.10,-8.75,0.56,4.87,10:38:48,33.664669N,-114.007439W,485.20,0.03,17
437604,24.42,339.43,29,28.08,-9.05,0.74,4.08,10:38:49,33.664669N,-114.007439W,485.20,0.03,17
438605,24.53,337.62,28,28.12,-9.25,0.22,3.90,10:38:50,33.664669N,-114.007439W,485.20,0.30,17
439606,24.64,335.73,23,28.12,-9.01,0.23,4.09,10:38:51,33.664669N,-114.007439W,485.20,0.29,17
440607,24.77,331.60,28,28.10,-8.93,0.12,4.01,10:38:52,33.664669N,-114.007446W,485.20,0.09,17
441608,24.89,333.41,23,28.09,-9.18,0.18,4.04,10:38:53,33.664669N,-114.007446W,485.20,0.10,17
442609,24.99,330.48,19,28.14,-9.08,0.43,4.02,10:38:54,33.664669N,-114.007446W,485.20,0.20,17
443610,25.08,329.80,16,28.15,-9.11,0.47,4.00,10:38:55,33.664669N,-114.007446W,485.20,0.12,17
444611,25.17,325.41,15,28.14,-9.10,0.33,4.07,10:38:56,33.664669N,-114.007446W,485.30,0.26,17
445612,25.24,312.88,15,28.12,-9.13,0.33,4.02,10:38:57,33.664669N,-114.007446W,485.30,0.25,17
446613,25.31,306.96,23,28.14,-9.17,0.20,4.14,10:38:58,33.664669N,-114.007439W,485.30,0.17,17
447614,25.39,304.47,16,28.10,-9.05,-0.01,3.90,10:38:59,33.664669N,-114.007439W,485.30,0.25,17
448615,25.48,313.05,14,28.13,-9.25,0.01,4.11,10:39:0,33.664669N,-114.007439W,485.30,0.18,17
449616,25.57,329.45,123,28.13,-8.76,-0.41,4.36,10:39:1,33.664669N,-114.007439W,485.30,0.21,17
450617,25.66,340.89,108,28.12,-9.22,-0.80,4.24,10:39:2,33.664669N,-114.007439W,485.30,0.10,17
451618,25.75,347.26,104,28.10,-9.08,-0.97,4.04,10:39:3,33.664669N,-114.007439W,485.30,0.09,17
452619,25.83,350.70,96,28.10,-9.20,-0.80,3.81,10:39:4,33.664669N,-114.007439W,485.30,0.13,17
453620,25.91,355.35,101,28.11,-9.20,-0.95,3.61,10:39:5,33.664669N,-114.007439W,485.30,0.21,16
454621,26.00,358.54,98,28.12,-9.15,-1.04,3.50,10:39:6,33.664669N,-114.007439W,485.30,0.15,16
455622,26.08,362.51,93,28.13,-9.23,-1.01,3.37,10:39:7,33.664669N,-114.007439W,485.30,0.24,16
456623,26.17,366.13,92,28.16,-9.19,-0.93,3.71,10:39:8,33.664669N,-114.007439W,485.30,0.46,17
457624,26.24,369.06,89,28.12,-9.31,-1.19,3.38,10:39:9,33.664665N,-114.007446W,485.30,0.44,17
458625,26.30,370.96,77,28.16,-9.41,-0.98,3.48,10:39:10,33.664665N,-114.007446W,485.30,0.39,17
459626,26.35,371.82,65,28.16,-9.20,-1.02,3.38,10:39:11,33.664661N,-114.007446W,485.30,0.32,17
460627,26.42,372.43,38,28.12,-9.36,-1.02,3.33,10:39:12,33.664665N,-114.007446W,485.30,0.10,17
461628,26.49,372.43,23,28.13,-9.35,-0.90,3.41,10:39:13,33.664661N,-114.007446W,485.30,0.18,17
462629,26.52,373.63,86,28.13,-9.34,-1.17,3.18,10:39:14,33.664661N,-114.007446W,485.30,0.32,17
463630,26.55,374.76,96,28.11,-9.39,-1.11,3.78,10:39:15,33.664661N,-114.007446W,485.30,0.08,17
464631,26.58,373.72,29,28.15,-8.96,-0.94,3.96,10:39:16,33.664665N,-114.007446W,485.30,0.46,16
465632,26.58,330.40,28,28.09,-8.82,1.15,4.44,10:39:17,33.664665N,-114.007446W,485.30,0.29,17
466633,26.60,308.59,30,28.10,-8.79,0.90,4.17,10:39:18,33.664665N,-114.007446W,485.30,0.08,17
467634,26.63,298.22,36,28.12,-8.63,1.15,4.36,10:39:19,33.664665N,-114.007446W,485.30,0.07,17
468635,26.67,318.11,30,28.14,-9.06,-0.09,4.49,10:39:20,33.664665N,-114.007446W,485.30,0.03,17
469636,26.70,327.22,36,28.14,-8.99,0.40,4.33,10:39:21,33.664665N,-114.007446W,485.30,0.05,17
470637,26.74,322.66,36,28.15,-9.13,0.31,4.19,10:39:22,33.664665N,-114.007446W,485.30,0.20,17
471638,26.77,327.99,38,28.12,-8.77,0.38,4.28,10:39:23,33.664665N,-114.007446W,485.30,0.20,17
472639,26.81,327.91,142,28.13,-8.84,0.58,3.59,10:39:24,33.664665N,-114.007446W,485.30,0.09,17
473640,26.83,349.07,87,28.12,-10.01,1.81,2.49,10:39:25,33.664665N,-114.007446W,485.30,0.05,17
474641,26.84,366.56,44,28.17,-10.11,2.16,1.28,10:39:26,33.664665N,-114.007446W,485.20,0.08,17
475642,26.84,379.68,49,28.14,-7.27,6.35,2.24,10:39:27,33.664665N,-114.007446W,485.20,0.59,17
476643,26.81,389.53,43,28.12,-7.26,4.73,1.37,10:39:28,33.664665N,-114.007446W,485.10,0.44,17
477644,26.77,396.71,35,28.15,-9.05,4.12,0.63,10:39:29,33.664661N,-114.007446W,484.90,0.52,17
478645,26.75,402.07,33,28.19,-8.68,4.40,-0.22,10:39:30,33.664661N,-114.007446W,484.60,0.38,17
479646,26.73,406.14,33,28.15,-8.69,4.41,-0.26,10:39:31,33.664661N,-114.007446W,484.50,0.36,17
480647,26.72,409.17,33,28.13,-8.69,4.41,-0.25,10:39:32,33.664661N,-114.007446W,484.50,0.13,17
481648,26.70,411.51,33,28.17,-8.69,4.40,-0.25,10:39:33,33.664661N,-114.007439W,484.60,0.13,17
482649,26.68,413.24,33,28.15,-8.69,4.41,-0.24,10:39:34,33.664661N,-114.007439W,484.60,0.08,17
483650,26.67,414.54,34,28.15,-8.70,4.40,-0.25,10:39:35,33.664661N,-114.007439W,484.60,0.08,17
484651,26.67,415.49,34,28.14,-8.69,4.41,-0.25,10:39:36,33.664661N,-114.007439W,484.60,0.09,17
485652,26.66,416.27,33,28.11,-8.70,4.40,-0.25,10:39:37,33.664661N,-114.007439W,484.60,0.13,17
486653,26.65,416.79,34,28.17,-8.69,4.40,-0.25,10:39:38,33.664661N,-114.007439W,484.50,0.09,17
487654,26.64,417.23,34,28.13,-8.69,4.41,-0.25,10:39:39,33.664661N,-114.007439W,484.50,0.08,17
488655,26.64,417.66,34,28.15,-8.69,4.41,-0.25,10:39:40,33.664661N,-114.007439W,484.50,0.08,17
489656,26.63,417.83,34,28.17,-8.69,4.40,-0.25,10:39:41,33.664665N,-114.007439W,484.50,0.03,17
490657,26.61,417.92,34,28.14,-8.70,4.41,-0.24,10:39:42,33.664665N,-114.007439W,484.50,0.10,17
491658,26.59,417.92,34,28.15,-8.70,4.40,-0.24,10:39:43,33.664665N,-114.007439W,484.50,0.15,17
492659,26.55,418.09,35,28.12,-8.69,4.40,-0.24,10:39:44,33.664665N,-114.007439W,484.50,0.12,17
493660,26.52,418.18,34,28.12,-8.69,4.41,-0.26,10:39:45,33.664665N,-114.007439W,484.50,0.15,17
494661,26.50,418.18,34,28.14,-8.69,4.40,-0.24,10:39:46,33.664665N,-114.007439W,484.50,0.01,17
495662,26.48,418.35,34,28.14,-8.69,4.40,-0.25,10:39:47,33.664665N,-114.007439W,484.60,0.16,18
496663,26.45,418.35,35,28.12,-8.70,4.41,-0.24,10:39:48,33.664665N,-114.007439W,484.50,0.16,18
497664,26.42,418.44,34,28.14,-8.70,4.40,-0.24,10:39:49,33.664665N,-114.007439W,484.50,0.05,18
498665,26.39,418.44,34,28.12,-8.70,4.40,-0.24,10:39:50,33.664665N,-114.007439W,484.50,0.09,18
499666,26.38,418.44,34,28.15,-8.70,4.40,-0.24,10:39:51,33.664665N,-114.007439W,484.50,0.15,18
500667,26.37,418.53,34,28.17,-8.69,4.41,-0.25,10:39:52,33.664665N,-114.007439W,484.50,0.14,18
501668,26.36,418.53,34,28.14,-8.69,4.41,-0.25,10:39:53,33.664665N,-114.007439W,484.50,0.02,18
502669,26.35,418.53,35,28.18,-8.69,4.39,-0.25,10:39:54,33.664665N,-114.007439W,484.50,0.18,18
503670,26.33,418.53,34,28.17,-8.70,4.41,-0.25,10:39:55,33.664665N,-114.007439W,484.50,0.02,18
504671,26.32,418.53,34,28.14,-8.70,4.41,-0.25,10:39:56,33.664665N,-114.007439W,484.50,0.08,18
505672,26.31,418.53,35,28.21,-8.69,4.40,-0.25,10:39:57,33.664665N,-114.007439W,484.50,0.13,18
506673,26.30,418.53,34,28.18,-8.70,4.40,-0.25,10:39:58,33.664665N,-114.007439W,484.60,0.09,18
507674,26.29,418.53,34,28.14,-8.70,4.40,-0.25,10:39:59,33.664665N,-114.007439W,484.60,0.10,18
508675,26.28,418.53,34,28.20,-8.71,4.41,-0.25,10:40:0,33.664665N,-114.007439W,484.60,0.18,18
509676,26.28,418.44,34,28.18,-8.70,4.41,-0.23,10:40:1,33.664665N,-114.007439W,484.60,0.20,18
510677,26.27,418.53,34,28.16,-8.69,4.40,-0.26,10:40:2,33.664665N,-114.007439W,484.60,0.05,18
511678,26.26,418.53,35,28.20,-8.70,4.41,-0.25,10:40:3,33.664665N,-114.007439W,484.60,0.15,18
512679,26.25,418.61,35,28.19,-8.69,4.40,-0.25,10:40:4,33.664665N,-114.007439W,484.70,0.62,18
513680,26.25,418.61,35,28.16,-8.70,4.40,-0.25,10:40:5,33.664665N,-114.007439W,484.40,0.29,18
514681,26.24,418.70,35,28.23,-8.70,4.40,-0.24,10:40:6,33.664665N,-114.007439W,484.30,0.36,18
515682,26.23,418.70,35,28.21,-8.69,4.40,-0.24,10:40:7,33.664665N,-114.007439W,484.30,0.28,18
516683,26.23,418.70,35,28.20,-8.70,4.40,-0.24,10:40:8,33.664665N,-114.007439W,484.30,0.29,18
517684,26.23,418.61,34,28.18,-8.70,4.40,-0.25,10:40:9,33.664665N,-114.007439W,484.30,0.21,17
518685,26.23,418.70,35,28.15,-8.69,4.40,-0.24,10:40:10,33.664665N,-114.007439W,484.40,0.43,17
519686,26.23,418.70,35,28.19,-8.69,4.41,-0.25,10:40:11,33.664665N,-114.007439W,484.40,0.32,17
520687,26.24,418.70,35,28.18,-8.70,4.40,-0.26,10:40:12,33.664665N,-114.007439W,484.50,0.17,17
521688,26.24,418.70,35,28.19,-8.70,4.40,-0.25,10:40:13,33.664665N,-114.007439W,484.50,0.26,17
522689,26.24,418.79,35,28.18,-8.70,4.40,-0.25,10:40:14,33.664665N,-114.007439W,484.50,0.21,16
523690,26.22,418.79,35,28.14,-8.69,4.40,-0.25,10:40:15,33.664665N,-114.007439W,484.50,0.24,18
524691,26.21,418.79,35,28.16,-8.70,4.40,-0.25,10:40:16,33.664665N,-114.007439W,484.50,0.31,18
525692,26.20,418.87,35,28.19,-8.70,4.41,-0.24,10:40:17,33.664665N,-114.007439W,484.50,0.17,18
526693,26.19,418.87,35,28.19,-8.70,4.40,-0.25,10:40:18,33.664665N,-114.007439W,484.50,0.10,17
527694,26.18,418.87,35,28.17,-8.70,4.40,-0.24,10:40:19,33.664665N,-114.007439W,484.60,0.10,18
528695,26.17,418.87,35,28.21,-8.70,4.41,-0.25,10:40:20,33.664665N,-114.007439W,484.50,0.05,18
529696,26.16,418.79,35,28.17,-8.71,4.41,-0.24,10:40:21,33.664665N,-114.007439W,484.50,0.03,18
530697,26.15,418.79,35,28.19,-8.70,4.41,-0.23,10:40:22,33.664665N,-114.007439W,484.50,0.05,18
531698,26.14,418.79,34,28.20,-8.70,4.40,-0.24,10:40:23,33.664665N,-114.007439W,484.50,0.07,18
532699,26.15,418.70,35,28.16,-8.70,4.40,-0.25,10:40:24,33.664665N,-114.007439W,484.50,0.24,18
533700,26.14,418.70,34,28.25,-8.70,4.41,-0.24,10:40:25,33.664665N,-114.007439W,484.50,0.23,18
534701,26.14,418.70,34,28.19,-8.69,4.40,-0.25,10:40:26,33.664661N,-114.007439W,484.50,0.09,18
535702,26.14,418.61,34,28.20,-8.70,4.40,-0.25,10:40:27,33.664661N,-114.007439W,484.50,0.17,18
536703,26.13,418.53,33,28.21,-8.69,4.40,-0.24,10:40:28,33.664661N,-114.007439W,484.50,0.21,18
537704,26.11,418.44,34,28.24,-8.69,4.41,-0.24,10:40:29,33.664661N,-114.007439W,484.40,0.14,18
538705,26.09,418.44,34,28.25,-8.69,4.41,-0.25,10:40:30,33.664661N,-114.007439W,484.40,0.21,18
539706,26.09,418.44,34,28.19,-8.68,4.41,-0.24,10:40:31,33.664661N,-114.007439W,484.40,0.15,18
540707,26.08,418.44,35,28.20,-8.69,4.41,-0.24,10:40:32,33.664661N,-114.007439W,484.40,0.06,18
541708,26.08,418.53,34,28.20,-8.70,4.41,-0.25,10:40:33,33.664661N,-114.007439W,484.40,0.18,18
542709,26.08,418.53,35,28.21,-8.70,4.40,-0.25,10:40:34,33.664661N,-114.007439W,484.40,0.08,18
543710,26.07,418.61,35,28.26,-8.69,4.40,-0.25,10:40:35,33.664661N,-114.007439W,484.40,0.08,18
544711,26.08,418.61,34,28.20,-8.69,4.40,-0.24,10:40:36,33.664661N,-114.007439W,484.40,0.03,18
545712,26.08,418.61,34,28.27,-8.70,4.40,-0.24,10:40:37,33.664658N,-114.007439W,484.30,0.10,18
546713,26.08,418.61,35,28.21,-8.70,4.40,-0.24,10:40:38,33.664658N,-114.007439W,484.30,0.06,18
547714,26.09,418.61,35,28.21,-8.69,4.41,-0.25,10:40:39,33.664658N,-114.007439W,484.30,0.09,18
548715,26.10,418.61,35,28.22,-8.70,4.40,-0.24,10:40:40,33.664658N,-114.007439W,484.30,0.03,18
549716,26.10,418.61,35,28.21,-8.69,4.40,-0.25,10:40:41,33.664658N,-114.007439W,484.30,0.09,18
550717,26.10,418.61,35,28.27,-8.70,4.40,-0.25,10:40:42,33.664658N,-114.007439W,484.30,0.09,18
551718,26.09,418.61,34,28.23,-8.70,4.41,-0.25,10:40:43,33.664658N,-114.007439W,484.30,0.06,18
552719,26.08,418.61,34,28.18,-8.70,4.41,-0.24,10:40:44,33.664658N,-114.007439W,484.40,0.07,18
553720,26.08,418.70,35,28.24,-8.70,4.40,-0.25,10:40:45,33.664658N,-114.007439W,484.40,0.03,18
554721,26.08,418.70,35,28.20,-8.69,4.41,-0.24,10:40:46,33.664658N,-114.007439W,484.40,0.09,18
555722,26.09,418.79,35,28.30,-8.70,4.41,-0.25,10:40:47,33.664658N,-114.007439W,484.40,0.09,18
556723,26.09,418.70,34,28.25,-8.69,4.41,-0.24,10:40:48,33.664658N,-114.007439W,484.40,0.10,18
557724,26.08,418.61,34,28.24,-8.70,4.40,-0.25,10:40:49,33.664658N,-114.007439W,484.40,0.07,18
558725,26.07,418.53,35,28.21,-8.70,4.41,-0.25,10:40:50,33.664658N,-114.007439W,484.40,0.05,18
559726,26.06,418.53,34,28.27,-8.70,4.41,-0.25,10:40:51,33.664658N,-114.007439W,484.40,0.02,18
560727,26.06,418.53,35,28.23,-8.69,4.40,-0.25,10:40:52,33.664658N,-114.007439W,484.40,0.07,18
561728,26.06,418.44,34,28.23,-8.69,4.41,-0.24,10:40:53,33.664658N,-114.007439W,484.40,0.15,18
562729,26.05,418.44,35,28.25,-8.70,4.41,-0.24,10:40:54,33.664658N,-114.007439W,484.40,0.05,18
563730,26.04,418.53,35,28.20,-8.70,4.41,-0.24,10:40:55,33.664658N,-114.007439W,484.40,0.03,18
564731,26.04,418.53,35,28.28,-8.68,4.40,-0.26,10:40:56,33.664658N,-114.007439W,484.50,0.13,18
565732,26.04,418.44,34,28.25,-8.70,4.41,-0.24,10:40:57,33.664658N,-114.007439W,484.40,0.15,18
566733,26.04,418.53,34,28.25,-8.70,4.40,-0.24,10:40:58,33.664658N,-114.007439W,484.40,0.12,18
567734,26.04,418.53,35,28.27,-8.70,4.40,-0.25,10:40:59,33.664658N,-114.007439W,484.40,0.12,18
568735,26.03,418.53,35,28.23,-8.69,4.40,-0.24,10:41:0,33.664658N,-114.007439W,484.40,0.05,18
569736,26.01,418.44,35,28.22,-8.69,4.40,-0.25,10:41:1,33.664658N,-114.007439W,484.40,0.12,18
570737,25.99,418.35,35,28.27,-8.70,4.42,-0.24,10:41:2,33.664658N,-114.007439W,484.40,0.09,18
571738,25.96,418.35,35,28.28,-8.69,4.40,-0.25,10:41:3,33.664658N,-114.007439W,484.40,0.13,18
572739,25.94,418.27,34,28.32,-8.68,4.40,-0.25,10:41:4,33.664658N,-114.007439W,484.40,0.09,18
573740,25.91,418.35,34,28.21,-8.70,4.41,-0.25,10:41:5,33.664658N,-114.007439W,484.40,0.08,18
574741,25.88,418.27,35,28.26,-8.69,4.40,-0.25,10:41:6,33.664658N,-114.007439W,484.40,0.07,18
575742,25.86,418.35,35,28.27,-8.70,4.41,-0.24,10:41:7,33.664658N,-114.007439W,484.40,0.03,18
576743,25.85,418.27,35,28.30,-8.69,4.40,-0.26,10:41:8,33.664658N,-114.007439W,484.40,0.03,18
577744,25.83,418.44,35,28.29,-8.70,4.40,-0.25,10:41:9,33.664658N,-114.007439W,484.40,0.02,18
578745,25.81,418.35,35,28.26,-8.70,4.40,-0.25,10:41:10,33.664658N,-114.007439W,484.40,0.02,18
579746,25.79,418.35,35,28.25,-8.69,4.41,-0.25,10:41:11,33.664658N,-114.007439W,484.40,0.16,18
580747,25.77,418.35,35,28.28,-8.69,4.41,-0.24,10:41:12,33.664658N,-114.007439W,484.40,0.12,18
581748,25.75,418.35,35,28.26,-8.69,4.42,-0.25,10:41:13,33.664658N,-114.007439W,484.40,0.16,18
582749,25.73,418.35,34,28.23,-8.69,4.41,-0.24,10:41:14,33.664658N,-114.007439W,484.50,0.02,18
583750,25.72,418.35,34,28.27,-8.69,4.41,-0.25,10:41:15,33.664658N,-114.007439W,484.40,0.09,18
584751,25.71,418.35,34,28.25,-8.71,4.40,-0.24,10:41:16,33.664658N,-114.007439W,484.40,0.15,18
585752,25.71,418.27,34,28.25,-8.69,4.41,-0.25,10:41:17,33.664658N,-114.007439W,484.50,0.08,18
586753,25.70,418.27,35,28.22,-8.70,4.40,-0.24,10:41:18,33.664658N,-114.007439W,484.40,0.16,18
587754,25.68,418.27,35,28.26,-8.69,4.41,-0.24,10:41:19,33.664658N,-114.007439W,484.40,0.09,18
588755,25.65,418.35,34,28.32,-8.68,4.40,-0.24,10:41:20,33.664658N,-114.007439W,484.40,0.09,18
589756,25.63,418.44,30,28.29,-8.70,4.41,-0.24,10:41:21,33.664658N,-114.007439W,484.40,0.14,18
590757,25.61,418.44,31,28.29,-8.70,4.40,-0.24,10:41:22,33.664658N,-114.007439W,484.40,0.05,18
591758,25.60,418.53,30,28.34,-8.70,4.41,-0.25,10:41:23,33.664658N,-114.007439W,484.40,0.05,17
592759,25.59,418.53,31,28.30,-8.70,4.40,-0.25,10:41:24,33.664658N,-114.007439W,484.40,0.01,18
593760,25.58,418.61,30,28.30,-8.69,4.41,-0.25,10:41:25,33.664658N,-114.007439W,484.40,0.02,18
594761,25.57,418.61,29,28.25,-8.70,4.41,-0.26,10:41:26,33.664658N,-114.007439W,484.40,0.02,18
595762,25.55,418.61,29,28.28,-8.69,4.40,-0.24,10:41:27,33.664658N,-114.007439W,484.40,0.10,18
596763,25.55,418.70,29,28.28,-8.70,4.40,-0.25,10:41:28,33.664658N,-114.007439W,484.30,0.14,18
597764,25.54,418.70,30,28.31,-8.69,4.41,-0.24,10:41:29,33.664658N,-114.007439W,484.30,0.05,18
598765,25.54,418.61,35,28.25,-8.69,4.41,-0.25,10:41:30,33.664658N,-114.007439W,484.30,0.07,18
599766,25.53,418.53,35,28.30,-8.69,4.40,-0.24,10:41:31,33.664658N,-114.007439W,484.20,0.06,18
600767,25.52,418.53,34,28.31,-8.69,4.40,-0.25,10:41:32,33.664658N,-114.007439W,484.30,0.12,18
