time_since_start,bme_temp,bme_alt,uv,ism_temp,acc_x,acc_y,acc_z,gps_time,latitude,longitude,gps_alt,speed,sats
9911070,35.60,26987.44,372,-4.87,-0.27,-0.24,10.10,1:16:41,34.049801N,-113.239914W,28882.90,11.79,14
9912071,35.64,26929.16,372,-4.84,-0.24,-0.36,10.10,1:16:42,34.049782N,-113.239876W,28885.50,11.75,14
9913072,35.67,26942.54,382,-4.91,-0.31,-0.32,10.10,1:16:43,34.049759N,-113.239822W,28888.20,11.48,14
9914073,35.70,27060.32,382,-4.86,-0.26,-0.14,10.10,1:16:44,34.049736N,-113.239769W,28891.00,11.39,14
9915074,35.73,27210.14,399,-4.87,-0.28,-0.12,10.11,1:16:45,34.049717N,-113.239716W,28893.70,11.04,14
9916075,35.76,26591.76,444,-4.82,-0.27,-0.25,10.11,1:16:46,34.049694N,-113.239677W,28896.60,10.82,14
9917076,35.79,25740.06,397,-4.85,-0.25,-0.21,10.10,1:16:47,34.049671N,-113.239632W,28899.60,10.83,14
9918077,36.34,25565.52,374,-4.82,-0.24,-0.29,10.09,1:16:48,34.049648N,-113.239594W,28902.50,10.85,14
9919078,36.46,25488.71,375,-4.82,-0.30,-0.21,10.08,1:16:49,34.049622N,-113.239555W,28905.50,10.85,14
9920079,36.34,25428.83,332,-4.84,-0.23,-0.12,10.06,1:16:50,34.049599N,-113.239517W,28908.50,10.54,14
9921080,36.26,25397.63,358,-4.77,-0.18,-0.26,10.04,1:16:51,34.049572N,-113.239464W,28911.60,10.07,14
9922081,36.21,25410.08,365,-4.84,-0.33,-0.17,10.03,1:16:52,34.049549N,-113.239426W,28914.70,9.75,14
9923082,36.16,25640.42,413,-4.81,-0.31,-0.16,10.04,1:16:53,34.049522N,-113.239395W,28917.70,9.35,14
9924083,36.11,26039.04,421,-4.78,-0.27,-0.23,10.04,1:16:54,34.049500N,-113.239357W,28920.80,9.02,14
9925084,36.07,25271.97,14,-4.82,-0.28,-0.14,10.05,1:16:55,34.049477N,-113.239319W,28923.80,8.94,14
9926085,36.07,24815.32,386,-4.77,-0.28,-0.28,10.02,1:16:56,34.049454N,-113.239296W,28926.90,8.75,14
9927086,36.58,24886.92,347,-4.78,-0.31,-0.24,9.97,1:16:57,34.049431N,-113.239273W,28930.00,8.48,14
9928087,36.67,24970.96,367,-4.72,-0.33,-0.06,9.95,1:16:58,34.049404N,-113.239243W,28933.10,7.83,14
9929088,36.53,25039.33,333,-4.79,-0.20,-0.20,9.96,1:16:59,34.049381N,-113.239220W,28936.00,6.98,14
9930089,36.43,25105.83,347,-4.74,-0.30,-0.19,9.98,1:17:0,34.049358N,-113.239204W,28938.80,6.16,14
9931090,36.36,25205.96,347,-4.77,-0.37,-0.20,10.01,1:17:1,34.049339N,-113.239197W,28941.50,5.38,14
9932091,36.30,25575.22,382,-4.71,-0.30,-0.23,10.02,1:17:2,34.049320N,-113.239182W,28944.20,4.72,14
9933092,36.23,25591.43,389,-4.71,-0.34,-0.15,10.02,1:17:3,34.049305N,-113.239182W,28946.80,4.42,14
9934093,36.19,25317.53,410,-4.70,-0.27,-0.21,10.04,1:17:4,34.049290N,-113.239166W,28949.50,4.35,14
9935094,36.17,24712.63,10,-4.70,-0.33,-0.26,10.05,1:17:5,34.049274N,-113.239166W,28952.10,4.13,14
9936095,36.27,24412.57,403,-4.67,-0.41,-0.27,10.08,1:17:6,34.049259N,-113.239159W,28954.70,3.81,14
9937096,36.73,24097.68,10,-4.68,-0.35,-0.23,10.09,1:17:7,34.049248N,-113.239159W,28957.30,3.35,14
9938097,36.87,23886.81,140,-4.68,-0.24,-0.27,10.10,1:17:8,34.049240N,-113.239143W,28959.90,2.92,14
9939098,36.77,23965.94,408,-4.68,-0.20,-0.21,10.08,1:17:9,34.049229N,-113.239143W,28962.60,2.41,14
9940099,36.65,24333.09,397,-4.69,-0.30,-0.22,10.04,1:17:10,34.049221N,-113.239143W,28965.20,1.98,14
9941100,36.55,24826.26,372,-4.69,-0.36,-0.19,10.02,1:17:11,34.049217N,-113.239143W,28968.00,1.77,14
9942101,36.49,24959.67,346,-4.68,-0.32,-0.23,10.02,1:17:12,34.049210N,-113.239128W,28970.80,1.78,14
9943102,36.43,25039.33,327,-4.66,-0.23,-0.24,10.00,1:17:13,34.049202N,-113.239128W,28973.60,1.78,14
9944103,36.35,25097.10,355,-4.66,-0.19,-0.15,9.97,1:17:14,34.049198N,-113.239120W,28976.30,1.81,14
9945104,36.32,25132.12,371,-4.66,-0.28,-0.17,9.95,1:17:15,34.049198N,-113.239105W,28979.00,1.90,14
9946105,36.32,25152.68,392,-4.66,-0.31,-0.28,9.98,1:17:16,34.049198N,-113.239105W,28981.60,1.96,14
9947106,36.48,24884.15,401,-4.65,-0.25,-0.28,10.01,1:17:17,34.049202N,-113.239090W,28984.10,1.98,14
9948107,36.94,24675.37,405,-4.65,-0.24,-0.23,10.03,1:17:18,34.049210N,-113.239075W,28986.60,2.01,14
9949108,36.81,25205.96,376,-4.66,-0.35,-0.19,10.05,1:17:19,34.049217N,-113.239075W,28989.00,2.03,14
9950109,36.71,25253.87,350,-4.65,-0.32,-0.20,10.08,1:17:20,34.049221N,-113.239067W,28991.30,2.06,14
9951110,36.63,25290.14,332,-4.65,-0.24,-0.26,10.11,1:17:21,34.049221N,-113.239052W,28993.70,2.26,14
9952111,36.54,25290.14,361,-4.64,-0.22,-0.16,10.13,1:17:22,34.049225N,-113.239037W,28996.00,2.54,14
9953112,36.50,25284.07,366,-4.65,-0.29,-0.17,10.14,1:17:23,34.049232N,-113.239029W,28998.50,2.83,14
9954113,36.48,25290.14,365,-4.65,-0.31,-0.25,10.13,1:17:24,34.049236N,-113.239014W,29001.00,2.90,14
9955114,36.57,25102.92,387,-4.65,-0.25,-0.26,10.13,1:17:25,34.049240N,-113.238998W,29003.60,2.95,14
9956115,36.94,24516.43,431,-4.63,-0.26,-0.23,10.09,1:17:26,34.049248N,-113.238991W,29006.20,3.00,14
9957116,36.94,24976.62,404,-4.62,-0.35,-0.13,10.07,1:17:27,34.049255N,-113.238976W,29008.90,3.21,14
9958117,36.83,25514.16,386,-4.64,-0.31,-0.16,10.03,1:17:28,34.049259N,-113.238960W,29011.70,3.46,14
9959118,36.76,25914.86,376,-4.63,-0.23,-0.23,10.03,1:17:29,34.049259N,-113.238953W,29014.50,3.75,14
9960119,36.72,26089.73,386,-4.63,-0.17,-0.29,10.00,1:17:30,34.049259N,-113.238922W,29017.40,4.01,14
9961120,36.70,25942.93,345,-4.61,-0.23,-0.24,9.96,1:17:31,34.049259N,-113.238914W,29020.10,4.06,14
9962121,36.65,25818.02,342,-4.63,-0.26,-0.22,9.92,1:17:32,34.049259N,-113.238884W,29022.90,4.11,14
9963122,36.56,25750.15,362,-4.63,-0.32,-0.23,9.92,1:17:33,34.049259N,-113.238861W,29025.60,4.12,14
9964123,36.51,25666.77,345,-4.60,-0.32,-0.27,9.93,1:17:34,34.049252N,-113.238846W,29028.10,4.16,14
9965124,36.45,25610.96,357,-4.61,-0.37,-0.31,9.99,1:17:35,34.049248N,-113.238823W,29030.60,4.45,14
9966125,36.40,25555.85,335,-4.58,-0.32,-0.25,10.02,1:17:36,34.049244N,-113.238800W,29032.90,4.83,14
9967126,36.39,25510.97,332,-4.61,-0.28,-0.19,10.07,1:17:37,34.049240N,-113.238785W,29035.20,5.12,14
9968127,36.40,25476.03,337,-4.61,-0.23,-0.12,10.10,1:17:38,34.049240N,-113.238762W,29037.40,5.18,14
9969128,36.41,25441.37,340,-4.60,-0.24,-0.16,10.09,1:17:39,34.049236N,-113.238731W,29039.60,5.17,14
9970129,36.43,25419.45,342,-4.60,-0.29,-0.20,10.09,1:17:40,34.049232N,-113.238708W,29042.00,4.93,14
9971130,36.46,25397.63,352,-4.54,-0.32,-0.24,10.10,1:17:41,34.049232N,-113.238678W,29044.40,4.57,14
9972131,36.48,25379.02,341,-4.60,-0.26,-0.30,10.12,1:17:42,34.049229N,-113.238670W,29046.90,4.49,14
9973132,36.51,25366.65,330,-4.60,-0.22,-0.32,10.13,1:17:43,34.049229N,-113.238640W,29049.40,4.49,14
9974133,36.54,25348.17,386,-4.60,-0.24,-0.28,10.16,1:17:44,34.049225N,-113.238617W,29052.00,4.68,14
9975134,36.56,25351.25,358,-4.57,-0.34,-0.23,10.16,1:17:45,34.049221N,-113.238594W,29054.60,4.90,14
9976135,36.59,25366.65,328,-4.49,-0.37,-0.21,10.16,1:17:46,34.049221N,-113.238564W,29057.40,4.93,14
9977136,36.61,25372.83,372,-4.54,-0.35,-0.19,10.11,1:17:47,34.049221N,-113.238556W,29060.20,4.86,14
9978137,36.63,25363.57,351,-4.54,-0.30,-0.23,10.05,1:17:48,34.049221N,-113.238525W,29063.20,4.41,14
9979138,36.65,25345.10,353,-4.54,-0.28,-0.22,9.97,1:17:49,34.049221N,-113.238503W,29066.30,3.98,14
9980139,36.66,25329.76,381,-4.53,-0.19,-0.24,9.90,1:17:50,34.049229N,-113.238487W,29069.30,3.75,14
9981140,36.67,25329.76,369,-4.52,-0.20,-0.23,9.83,1:17:51,34.049232N,-113.238464W,29072.20,3.78,14
9982141,36.69,25338.96,326,-4.55,-0.24,-0.25,9.84,1:17:52,34.049240N,-113.238449W,29075.00,3.84,14
9983142,36.72,25335.89,370,-4.47,-0.35,-0.15,9.90,1:17:53,34.049252N,-113.238441W,29077.70,3.94,14
9984143,36.76,25342.03,345,-4.49,-0.32,-0.19,9.96,1:17:54,34.049259N,-113.238426W,29080.20,3.97,14
9985144,36.79,25363.57,384,-4.46,-0.33,-0.19,10.03,1:17:55,34.049274N,-113.238411W,29082.60,3.94,14
9986145,36.82,25419.45,333,-4.46,-0.36,-0.24,10.08,1:17:56,34.049278N,-113.238403W,29084.80,3.59,14
9987146,36.84,25736.70,376,-4.50,-0.30,-0.23,10.12,1:17:57,34.049290N,-113.238388W,29087.00,3.37,14
9988147,36.83,25670.07,397,-4.45,-0.39,-0.27,10.13,1:17:58,34.049297N,-113.238365W,29089.20,3.37,14
9989148,36.84,25027.86,384,-4.44,-0.35,-0.21,10.15,1:17:59,34.049305N,-113.238350W,29091.50,3.63,14
9990149,37.28,25105.83,347,-4.43,-0.27,-0.24,10.15,1:18:0,34.049313N,-113.238335W,29093.90,3.86,14
9991150,37.30,25167.42,362,-4.44,-0.34,-0.22,10.17,1:18:1,34.049320N,-113.238319W,29096.30,3.94,14
9992151,37.24,25223.87,331,-4.46,-0.32,-0.18,10.16,1:18:2,34.049328N,-113.238312W,29098.80,3.97,14
9993152,37.19,25323.64,366,-4.45,-0.29,-0.21,10.15,1:18:3,34.049335N,-113.238281W,29101.40,3.96,14
9994153,37.15,25746.79,381,-4.38,-0.31,-0.17,10.13,1:18:4,34.049339N,-113.238274W,29104.20,3.91,14
9995154,37.11,25746.79,406,-4.39,-0.31,-0.22,10.12,1:18:5,34.049339N,-113.238243W,29107.00,3.95,14
9996155,37.08,24970.96,418,-4.40,-0.32,-0.19,10.07,1:18:6,34.049343N,-113.238235W,29110.00,4.21,14
9997156,37.30,24875.83,366,-4.36,-0.29,-0.15,10.03,1:18:7,34.049343N,-113.238205W,29113.00,4.62,14
9998157,37.68,24996.48,345,-4.39,-0.27,-0.25,10.00,1:18:8,34.049343N,-113.238182W,29116.10,5.09,14
9999158,37.63,25085.49,376,-4.34,-0.35,-0.22,9.95,1:18:9,34.049339N,-113.238159W,29119.10,5.40,14
10000159,37.53,25152.68,343,-4.38,-0.34,-0.19,9.92,1:18:10,34.049339N,-113.238129W,29122.10,5.48,14
10001160,37.45,25223.87,333,-4.38,-0.33,-0.22,9.91,1:18:11,34.049332N,-113.238106W,29125.00,5.79,14
10002161,37.40,25281.04,343,-4.34,-0.37,-0.25,9.94,1:18:12,34.049320N,-113.238083W,29127.80,6.07,14
10003162,37.37,25360.48,330,-4.30,-0.29,-0.25,10.01,1:18:13,34.049313N,-113.238052W,29130.50,6.28,14
10004163,37.32,25394.52,358,-4.30,-0.25,-0.32,10.05,1:18:14,34.049297N,-113.238029W,29133.00,6.37,14
10005164,37.27,25422.57,330,-4.25,-0.24,-0.30,10.07,1:18:15,34.049286N,-113.237991W,29135.60,6.56,14
10006165,37.15,25466.55,335,-4.31,-0.27,-0.26,10.10,1:18:16,34.049274N,-113.237968W,29138.10,6.55,14
10007166,37.09,25463.40,350,-4.28,-0.26,-0.14,10.14,1:18:17,34.049263N,-113.237938W,29140.60,6.34,14
10008167,37.03,25460.24,342,-4.29,-0.30,-0.17,10.17,1:18:18,34.049252N,-113.237915W,29143.20,6.01,14
10009168,37.02,25453.94,358,-4.25,-0.37,-0.24,10.20,1:18:19,34.049244N,-113.237877W,29145.90,5.75,14
10010169,37.03,25438.23,342,-4.28,-0.33,-0.33,10.20,1:18:20,34.049236N,-113.237862W,29148.70,5.70,14
10011170,37.05,25413.20,343,-4.25,-0.24,-0.27,10.18,1:18:21,34.049229N,-113.237839W,29151.70,5.48,14
10012171,37.07,25403.85,370,-4.28,-0.28,-0.16,10.15,1:18:22,34.049221N,-113.237801W,29154.80,5.42,14
10013172,37.23,25030.73,389,-4.30,-0.36,-0.18,10.08,1:18:23,34.049217N,-113.237785W,29158.00,5.33,14
10014173,37.69,24683.33,406,-4.24,-0.31,-0.24,9.99,1:18:24,34.049213N,-113.237762W,29161.30,4.98,14
10015174,37.60,24804.40,394,-4.24,-0.22,-0.35,9.91,1:18:25,34.049217N,-113.237732W,29164.70,4.63,14
10016175,37.51,25256.88,377,-4.27,-0.18,-0.27,9.87,1:18:26,34.049221N,-113.237709W,29168.10,4.32,14
10017176,37.46,25357.40,364,-4.22,-0.28,-0.22,9.88,1:18:27,34.049225N,-113.237694W,29171.40,4.25,14
10018177,37.40,25379.02,345,-4.19,-0.40,-0.29,9.91,1:18:28,34.049236N,-113.237686W,29174.40,4.21,14
10019178,37.35,25400.74,342,-4.24,-0.34,-0.32,9.97,1:18:29,34.049244N,-113.237671W,29177.30,4.21,14
10020179,37.36,25400.74,332,-4.16,-0.24,-0.33,10.05,1:18:30,34.049259N,-113.237648W,29179.90,4.22,14
10021180,37.39,25400.74,365,-4.24,-0.25,-0.21,10.08,1:18:31,34.049271N,-113.237633W,29182.50,4.44,14
10022181,37.42,25413.20,361,-4.20,-0.38,-0.18,10.10,1:18:32,34.049278N,-113.237617W,29185.00,4.52,14
10023182,37.50,25400.74,376,-4.23,-0.43,-0.17,10.15,1:18:33,34.049290N,-113.237595W,29187.60,4.60,14
10024183,37.66,25379.02,360,-4.16,-0.41,-0.22,10.17,1:18:34,34.049301N,-113.237579W,29190.30,4.63,14
10025184,37.82,25342.03,410,-4.17,-0.27,-0.24,10.19,1:18:35,34.049313N,-113.237572W,29193.00,4.62,14
10026185,37.98,25274.99,375,-4.15,-0.17,-0.25,10.18,1:18:36,34.049324N,-113.237541W,29195.90,4.57,14
10027186,38.17,25085.49,389,-4.17,-0.14,-0.23,10.17,1:18:37,34.049335N,-113.237526W,29198.80,4.58,14
10028187,38.46,24557.60,53,-4.15,-0.22,-0.17,10.11,1:18:38,34.049343N,-113.237503W,29201.90,4.78,14
10029188,38.62,24675.37,400,-4.15,-0.32,-0.19,10.05,1:18:39,34.049347N,-113.237488W,29205.10,5.34,14
10030189,38.41,25111.66,399,-4.14,-0.26,-0.31,9.95,1:18:40,34.049351N,-113.237465W,29208.50,6.01,14
10031190,38.26,25588.18,390,-4.16,-0.15,-0.29,9.90,1:18:41,34.049347N,-113.237427W,29211.90,6.48,14
10032191,38.16,25584.94,351,-4.15,-0.20,-0.25,9.89,1:18:42,34.049347N,-113.237404W,29215.10,6.74,14
10033192,38.08,25575.22,341,-4.17,-0.35,-0.23,9.93,1:18:43,34.049343N,-113.237366W,29218.20,6.79,14
10034193,37.98,25571.98,345,-4.15,-0.32,-0.29,10.02,1:18:44,34.049339N,-113.237335W,29221.10,6.86,14
10035194,37.86,25546.19,333,-4.15,-0.32,-0.27,10.10,1:18:45,34.049335N,-113.237297W,29223.90,6.91,14
10036195,37.79,25530.15,346,-4.13,-0.28,-0.24,10.14,1:18:46,34.049332N,-113.237259W,29226.60,6.99,14
10037196,37.78,25520.55,347,-4.14,-0.31,-0.24,10.16,1:18:47,34.049328N,-113.237236W,29229.40,7.17,14
10038197,37.79,25507.79,331,-4.14,-0.23,-0.18,10.19,1:18:48,34.049324N,-113.237198W,29232.20,7.15,14
10039198,37.81,25491.88,362,-4.14,-0.31,-0.15,10.21,1:18:49,34.049320N,-113.237175W,29235.20,6.79,14
10040199,37.83,25479.20,376,-4.13,-0.33,-0.19,10.22,1:18:50,34.049320N,-113.237129W,29238.30,6.31,14
10041200,37.85,25457.09,371,-4.13,-0.24,-0.30,10.18,1:18:51,34.049320N,-113.237106W,29241.50,5.81,14
10042201,37.89,25466.55,340,-4.13,-0.19,-0.25,10.13,1:18:52,34.049320N,-113.237083W,29244.90,5.39,14
10043202,37.92,25197.04,394,-4.12,-0.23,-0.23,10.03,1:18:53,34.049324N,-113.237053W,29248.50,5.03,14
10044203,38.39,24956.85,399,-4.12,-0.35,-0.24,9.91,1:18:54,34.049332N,-113.237030W,29252.10,4.78,14
10045204,38.33,24923.15,403,-4.12,-0.33,-0.30,9.88,1:18:55,34.049339N,-113.237015W,29255.70,4.70,14
10046205,38.28,24968.13,387,-4.12,-0.30,-0.38,9.92,1:18:56,34.049355N,-113.236992W,29259.30,4.67,14
10047206,38.25,25335.89,396,-4.12,-0.23,-0.32,10.01,1:18:57,34.049370N,-113.236992W,29262.80,4.74,14
10048207,38.24,25814.61,400,-4.12,-0.28,-0.15,10.06,1:18:58,34.049389N,-113.236977W,29266.10,5.00,14
10049208,38.24,25921.86,395,-4.12,-0.30,-0.04,10.07,1:18:59,34.049408N,-113.236977W,29269.30,5.06,14
10050209,38.26,25360.48,11,-4.12,-0.25,-0.13,10.08,1:19:0,34.049431N,-113.236969W,29272.50,5.10,14
10051210,38.29,24906.39,381,-4.11,-0.29,-0.19,10.11,1:19:1,34.049450N,-113.236969W,29275.80,5.08,14
10052211,38.82,25007.87,336,-4.11,-0.34,-0.21,10.13,1:19:2,34.049473N,-113.236969W,29279.00,5.02,14
10053212,38.92,25108.74,376,-4.09,-0.29,-0.16,10.13,1:19:3,34.049492N,-113.236954W,29282.30,5.04,14
10054213,38.79,25194.07,352,-4.09,-0.28,-0.07,10.12,1:19:4,34.049515N,-113.236954W,29285.60,5.08,14
10055214,38.71,25274.99,355,-4.09,-0.27,-0.16,10.12,1:19:5,34.049534N,-113.236938W,29289.00,5.43,14
10056215,38.66,25351.25,377,-4.09,-0.34,-0.22,10.08,1:19:6,34.049557N,-113.236938W,29292.50,5.44,14
10057216,38.60,25852.36,392,-4.09,-0.42,-0.08,10.06,1:19:7,34.049576N,-113.236938W,29296.00,5.26,14
10058217,38.55,25828.30,428,-4.07,-0.30,-0.10,10.03,1:19:8,34.049595N,-113.236938W,29299.60,4.89,14
10059218,38.52,25259.89,360,-4.05,-0.26,-0.22,10.02,1:19:9,34.049610N,-113.236931W,29303.20,4.56,14
10060219,39.04,25302.29,318,-4.08,-0.26,-0.23,9.99,1:19:10,34.049625N,-113.236916W,29306.80,4.36,14
10061220,38.93,25360.48,332,-4.02,-0.23,-0.18,9.97,1:19:11,34.049637N,-113.236900W,29310.30,4.37,14
10062221,38.84,25510.97,374,-4.05,-0.17,-0.30,9.99,1:19:12,34.049652N,-113.236893W,29313.70,4.34,14
10063222,38.75,25624.03,406,-4.09,-0.27,-0.39,10.03,1:19:13,34.049664N,-113.236877W,29317.10,4.36,14
10064223,38.67,25326.70,391,-4.05,-0.26,-0.31,10.07,1:19:14,34.049679N,-113.236862W,29320.40,4.44,14
10065224,39.09,25369.74,380,-4.01,-0.20,-0.34,10.09,1:19:15,34.049698N,-113.236855W,29323.70,4.70,14
10066225,38.96,25406.97,342,-4.02,-0.22,-0.36,10.08,1:19:16,34.049713N,-113.236839W,29327.00,4.75,14
10067226,38.86,25441.37,328,-4.02,-0.27,-0.29,10.08,1:19:17,34.049728N,-113.236824W,29330.40,5.01,14
10068227,38.80,25485.54,347,-4.01,-0.27,-0.23,10.09,1:19:18,34.049747N,-113.236816W,29333.80,5.08,14
10069228,38.74,25552.63,337,-4.03,-0.22,-0.22,10.08,1:19:19,34.049767N,-113.236801W,29337.20,5.35,14
10070229,38.68,25597.93,323,-3.99,-0.18,-0.24,10.09,1:19:20,34.049786N,-113.236786W,29340.60,5.71,14
10071230,38.64,25607.70,358,-3.97,-0.14,-0.29,10.09,1:19:21,34.049805N,-113.236771W,29344.20,6.16,14
10072231,38.56,25869.63,365,-3.96,-0.23,-0.20,10.05,1:19:22,34.049831N,-113.236763W,29347.80,6.58,14
10073232,38.50,25996.06,367,-3.95,-0.38,-0.17,9.99,1:19:23,34.049858N,-113.236763W,29351.30,7.15,14
10074233,38.47,26017.50,360,-3.93,-0.34,-0.24,9.91,1:19:24,34.049889N,-113.236748W,29354.90,7.84,14
10075234,38.39,25996.06,355,-3.96,-0.30,-0.28,9.85,1:19:25,34.049923N,-113.236748W,29358.50,8.49,14
10076235,38.27,25890.45,332,-3.97,-0.21,-0.23,9.85,1:19:26,34.049957N,-113.236748W,29362.00,8.93,14
10077236,38.17,25797.55,341,-3.95,-0.25,-0.22,9.93,1:19:27,34.049995N,-113.236763W,29365.30,9.37,14
10078237,38.14,25729.99,371,-3.92,-0.31,-0.13,10.03,1:19:28,34.050034N,-113.236763W,29368.50,9.78,14
10079238,38.16,25673.38,380,-3.89,-0.32,-0.25,10.08,1:19:29,34.050072N,-113.236763W,29371.50,10.05,14
10080239,38.20,25646.99,375,-3.91,-0.24,-0.33,10.10,1:19:30,34.050114N,-113.236771W,29374.40,10.04,14
10081240,38.24,25299.25,245,-3.91,-0.14,-0.21,10.12,1:19:31,34.050152N,-113.236771W,29377.40,9.96,14
10082241,38.75,25170.37,394,-3.92,-0.38,-0.24,10.12,1:19:32,34.050194N,-113.236786W,29380.40,9.70,14
10083242,38.67,25262.91,401,-3.86,-0.34,-0.25,10.14,1:19:33,34.050232N,-113.236786W,29383.40,9.61,14
10084243,38.61,25699.93,376,-3.88,-0.22,-0.32,10.13,1:19:34,34.050274N,-113.236801W,29386.50,9.54,14
10085244,38.57,25750.15,365,-3.89,-0.28,-0.25,10.14,1:19:35,34.050312N,-113.236801W,29389.70,9.51,14
10086245,38.54,25750.15,348,-3.87,-0.17,-0.21,10.15,1:19:36,34.050350N,-113.236801W,29393.00,9.58,14
10087246,38.50,25706.59,360,-3.87,-0.33,-0.17,10.11,1:19:37,34.050388N,-113.236801W,29396.40,9.61,14
10088247,38.43,25680.00,346,-3.82,-0.37,-0.25,10.10,1:19:38,34.050426N,-113.236801W,29399.90,9.32,14
10089248,38.42,25646.99,348,-3.79,-0.29,-0.36,10.05,1:19:39,34.050465N,-113.236801W,29403.50,8.93,14
10090249,38.43,25620.75,387,-3.77,-0.16,-0.18,9.99,1:19:40,34.050499N,-113.236801W,29407.00,8.55,14
10091250,38.44,25610.96,348,-3.76,-0.26,-0.19,9.95,1:19:41,34.050529N,-113.236786W,29410.70,8.24,14
10092251,38.46,25610.96,331,-3.75,-0.30,-0.24,9.89,1:19:42,34.050564N,-113.236771W,29414.30,7.92,14
10093252,38.50,25584.94,405,-3.86,-0.27,-0.31,9.86,1:19:43,34.050591N,-113.236763W,29417.80,7.87,14
10094253,38.67,25348.17,391,-3.81,-0.33,-0.29,9.90,1:19:44,34.050621N,-113.236748W,29421.20,7.84,14
10095254,39.08,24970.96,396,-3.76,-0.26,-0.25,9.96,1:19:45,34.050648N,-113.236725W,29424.50,7.78,14
10096255,39.52,24648.94,406,-3.78,-0.24,-0.20,10.00,1:19:46,34.050674N,-113.236710W,29427.50,7.71,14
10097256,39.83,24367.70,10,-3.75,-0.30,-0.16,10.02,1:19:47,34.050701N,-113.236687W,29430.40,7.72,14
10098257,39.94,24144.78,10,-3.72,-0.38,-0.21,10.05,1:19:48,34.050728N,-113.236656W,29433.30,8.03,14
10099258,39.98,23970.51,16,-3.70,-0.29,-0.22,10.10,1:19:49,34.050751N,-113.236633W,29436.10,8.38,14
10100259,40.06,23797.95,14,-3.77,-0.22,-0.24,10.14,1:19:50,34.050781N,-113.236610W,29439.00,8.64,14
10101260,40.06,23652.67,18,-3.75,-0.22,-0.26,10.14,1:19:51,34.050808N,-113.236580W,29441.90,8.72,14
10102261,39.92,23817.80,420,-3.71,-0.28,-0.30,10.13,1:19:52,34.050838N,-113.236557W,29444.80,8.78,14
10103262,39.71,24187.57,396,-3.70,-0.25,-0.20,10.13,1:19:53,34.050869N,-113.236542W,29447.90,8.76,14
10104263,39.56,24593.92,395,-3.70,-0.32,-0.17,10.10,1:19:54,34.050896N,-113.236519W,29451.00,8.70,14
10105264,39.46,25082.59,370,-3.68,-0.37,-0.22,10.09,1:19:55,34.050926N,-113.236496W,29454.20,8.70,14
10106265,39.39,25517.36,377,-3.68,-0.32,-0.33,10.05,1:19:56,34.050953N,-113.236465W,29457.50,8.94,14
10107266,39.34,25893.93,371,-3.70,-0.27,-0.22,10.04,1:19:57,34.050987N,-113.236458W,29460.70,9.22,14
10108267,39.31,25964.11,360,-3.68,-0.26,-0.16,9.97,1:19:58,34.051018N,-113.236427W,29464.10,9.30,14
10109268,39.29,26053.46,375,-3.71,-0.24,-0.16,9.94,1:19:59,34.051052N,-113.236420W,29467.40,9.38,14
10110269,39.23,26196.68,379,-3.66,-0.19,-0.26,9.91,1:20:0,34.051086N,-113.236389W,29470.70,9.42,14
10111270,39.17,26264.44,370,-3.68,-0.25,-0.23,9.90,1:20:1,34.051125N,-113.236374W,29473.90,9.40,14
10112271,39.12,26122.64,367,-3.64,-0.32,-0.26,9.92,1:20:2,34.051163N,-113.236374W,29476.90,9.39,14
10113272,39.04,26241.74,376,-3.65,-0.33,-0.26,9.94,1:20:3,34.051197N,-113.236366W,29479.70,9.44,14
10114273,38.99,26364.27,379,-3.66,-0.29,-0.29,10.00,1:20:4,34.051235N,-113.236366W,29482.50,9.66,14
10115274,38.99,26287.27,380,-3.63,-0.32,-0.17,10.04,1:20:5,34.051273N,-113.236366W,29485.10,9.69,14
10116275,38.99,26333.30,380,-3.64,-0.33,-0.14,10.07,1:20:6,34.051311N,-113.236366W,29487.70,9.66,14
10117276,38.99,26526.65,390,-3.66,-0.25,-0.18,10.10,1:20:7,34.051350N,-113.236351W,29490.20,9.46,14
10118277,39.00,26767.70,381,-3.64,-0.23,-0.32,10.13,1:20:8,34.051388N,-113.236351W,29492.90,9.25,14
10119278,39.02,26841.10,385,-3.62,-0.27,-0.28,10.15,1:20:9,34.051426N,-113.236351W,29495.50,9.20,14
10120279,39.04,26802.08,390,-3.62,-0.34,-0.22,10.14,1:20:10,34.051464N,-113.236336W,29498.20,9.15,14
10121280,39.06,26522.61,389,-3.63,-0.35,-0.24,10.14,1:20:11,34.051502N,-113.236336W,29500.90,9.22,14
10122281,39.09,25787.35,13,-3.62,-0.32,-0.22,10.14,1:20:12,34.051540N,-113.236336W,29503.80,9.54,14
10123282,39.13,25135.05,397,-3.64,-0.22,-0.25,10.13,1:20:13,34.051579N,-113.236336W,29506.80,9.62,14
10124283,39.62,24993.64,376,-3.62,-0.19,-0.28,10.12,1:20:14,34.051617N,-113.236336W,29509.80,9.62,14
10125284,40.00,25111.66,353,-3.62,-0.32,-0.29,10.10,1:20:15,34.051655N,-113.236328W,29513.00,9.44,14
10126285,40.03,25232.85,390,-3.62,-0.34,-0.17,10.11,1:20:16,34.051693N,-113.236313W,29516.20,9.20,14
10127286,39.87,25323.64,311,-3.62,-0.28,-0.15,10.08,1:20:17,34.051727N,-113.236313W,29519.40,8.95,14
10128287,39.77,25391.42,350,-3.62,-0.24,-0.28,10.04,1:20:18,34.051762N,-113.236298W,29522.70,8.87,14
10129288,39.70,25466.55,356,-3.62,-0.25,-0.30,10.02,1:20:19,34.051796N,-113.236290W,29526.10,8.85,14
10130289,39.66,25663.46,376,-3.62,-0.30,-0.24,9.97,1:20:20,34.051830N,-113.236275W,29529.50,8.90,14
10131290,39.61,25981.83,387,-3.61,-0.28,-0.17,9.92,1:20:21,34.051861N,-113.236259W,29532.90,9.12,14
10132291,39.55,26387.64,391,-3.62,-0.29,-0.10,9.89,1:20:22,34.051895N,-113.236237W,29536.20,9.15,14
10133292,39.52,26341.02,396,-3.61,-0.24,-0.24,9.89,1:20:23,34.051926N,-113.236214W,29539.40,9.18,14
10134293,39.53,25633.85,23,-3.61,-0.27,-0.25,9.94,1:20:24,34.051960N,-113.236183W,29542.50,9.23,14
10135294,39.56,25062.35,9,-3.62,-0.37,-0.24,9.99,1:20:25,34.051987N,-113.236160W,29545.40,9.30,14
10136295,39.65,24678.02,391,-3.59,-0.35,-0.20,10.05,1:20:26,34.052017N,-113.236137W,29548.20,9.55,14
10137296,39.99,24672.72,364,-3.61,-0.37,-0.20,10.09,1:20:27,34.052048N,-113.236107W,29550.90,9.90,14
10138297,40.39,24771.80,365,-3.58,-0.28,-0.23,10.10,1:20:28,34.052078N,-113.236069W,29553.50,10.35,14
10139298,40.59,24829.00,366,-3.60,-0.22,-0.27,10.13,1:20:29,34.052116N,-113.236046W,29556.10,10.70,14
10140299,40.76,24853.73,367,-3.60,-0.15,-0.30,10.15,1:20:30,34.052147N,-113.236008W,29558.80,10.78,14
10141300,40.92,24815.32,390,-3.54,-0.25,-0.26,10.16,1:20:31,34.052181N,-113.235977W,29561.70,10.87,14
10142301,41.10,24612.19,409,-3.57,-0.28,-0.25,10.15,1:20:32,34.052219N,-113.235939W,29564.60,10.88,14
10143302,41.34,24330.63,10,-3.54,-0.34,-0.24,10.16,1:20:33,34.052250N,-113.235901W,29567.60,10.87,14
10144303,41.09,24450.30,397,-3.59,-0.35,-0.25,10.13,1:20:34,34.052284N,-113.235878W,29570.70,10.89,14
10145304,40.82,24625.28,390,-3.54,-0.35,-0.25,10.08,1:20:35,34.052319N,-113.235840W,29574.00,11.15,14
10146305,40.61,24920.35,401,-3.52,-0.29,-0.22,10.02,1:20:36,34.052357N,-113.235817W,29577.40,11.50,14
10147306,40.47,25469.71,381,-3.58,-0.29,-0.15,9.94,1:20:37,34.052395N,-113.235779W,29580.80,11.82,14
10148307,40.39,25883.50,377,-3.51,-0.24,-0.13,9.86,1:20:38,34.052437N,-113.235748W,29584.30,12.00,14
10149308,40.34,26075.19,361,-3.49,-0.21,-0.23,9.84,1:20:39,34.052475N,-113.235725W,29587.70,12.05,14
10150309,40.30,26039.04,341,-3.55,-0.19,-0.23,9.86,1:20:40,34.052525N,-113.235703W,29591.00,12.07,14
10151310,40.23,25957.04,345,-3.52,-0.22,-0.25,9.94,1:20:41,34.052570N,-113.235687W,29594.10,12.06,14
10152311,40.18,25880.03,342,-3.51,-0.29,-0.28,10.01,1:20:42,34.052616N,-113.235664W,29596.90,12.07,14
10153312,40.16,25828.30,362,-3.58,-0.22,-0.28,10.07,1:20:43,34.052658N,-113.235649W,29599.60,12.11,14
10154313,40.18,25783.96,364,-3.47,-0.22,-0.29,10.07,1:20:44,34.052708N,-113.235619W,29602.20,12.14,14
10155314,40.21,25719.95,387,-3.51,-0.27,-0.26,10.08,1:20:45,34.052753N,-113.235611W,29604.80,12.18,14
10156315,40.43,25526.95,365,-3.52,-0.32,-0.30,10.11,1:20:46,34.052795N,-113.235580W,29607.40,12.18,14
10157316,40.77,25326.70,389,-3.47,-0.35,-0.27,10.12,1:20:47,34.052845N,-113.235558W,29610.10,11.94,14
10158317,41.09,25033.59,401,-3.49,-0.35,-0.25,10.14,1:20:48,34.052891N,-113.235542W,29612.80,11.88,14
10159318,41.43,24798.95,401,-3.38,-0.33,-0.20,10.16,1:20:49,34.052933N,-113.235519W,29615.50,11.68,14
10160319,41.70,24771.80,387,-3.42,-0.26,-0.19,10.16,1:20:50,34.052979N,-113.235504W,29618.30,11.66,14
10161320,41.84,24771.80,392,-3.43,-0.25,-0.17,10.15,1:20:51,34.053024N,-113.235497W,29621.20,11.67,14
10162321,41.92,24659.49,415,-3.42,-0.23,-0.20,10.12,1:20:52,34.053070N,-113.235466W,29624.20,11.68,14
10163322,42.06,24425.12,430,-3.46,-0.22,-0.24,10.09,1:20:53,34.053112N,-113.235458W,29627.40,11.60,14
10164323,42.20,24100.02,15,-3.40,-0.23,-0.29,10.03,1:20:54,34.053154N,-113.235428W,29630.80,11.26,14
10165324,41.99,24352.83,418,-3.38,-0.24,-0.31,9.95,1:20:55,34.053192N,-113.235405W,29634.20,10.92,14
10166325,41.65,25039.33,382,-3.39,-0.30,-0.26,9.90,1:20:56,34.053230N,-113.235382W,29637.60,10.58,14
10167326,41.41,25482.37,385,-3.36,-0.33,-0.26,9.88,1:20:57,34.053265N,-113.235352W,29641.00,10.29,14
10168327,41.24,25591.43,376,-3.41,-0.34,-0.27,9.89,1:20:58,34.053299N,-113.235329W,29644.20,10.24,14
10169328,41.11,25650.28,347,-3.41,-0.31,-0.24,9.95,1:20:59,34.053329N,-113.235306W,29647.30,10.21,14
10170329,40.97,25750.15,355,-3.38,-0.29,-0.21,10.01,1:21:0,34.053356N,-113.235268W,29650.20,10.20,14
10171330,40.82,25818.02,351,-3.36,-0.23,-0.15,10.05,1:21:1,34.053391N,-113.235222W,29652.90,10.13,14
10172331,40.71,25988.94,381,-3.39,-0.20,-0.18,10.07,1:21:2,34.053417N,-113.235184W,29655.50,9.80,14
10173332,40.61,26200.42,386,-3.34,-0.23,-0.23,10.10,1:21:3,34.053444N,-113.235161W,29658.10,9.40,14
10174333,40.53,26458.56,382,-3.34,-0.31,-0.24,10.13,1:21:4,34.053471N,-113.235123W,29660.60,9.04,14
10175334,40.50,26695.59,372,-3.34,-0.35,-0.23,10.15,1:21:5,34.053497N,-113.235100W,29663.30,8.78,14
10176335,40.49,26876.10,374,-3.37,-0.35,-0.20,10.15,1:21:6,34.053524N,-113.235069W,29666.10,8.75,14
10177336,40.52,26938.07,379,-3.34,-0.34,-0.23,10.14,1:21:7,34.053547N,-113.235046W,29668.90,8.78,14
10178337,40.54,26815.04,352,-3.33,-0.29,-0.21,10.12,1:21:8,34.053577N,-113.235023W,29671.80,9.00,14
10179338,40.53,26571.31,342,-3.37,-0.22,-0.17,10.09,1:21:9,34.053608N,-113.234985W,29674.80,9.05,14
10180339,40.46,26387.64,353,-3.32,-0.22,-0.14,10.02,1:21:10,34.053635N,-113.234955W,29677.90,9.07,14
10181340,40.41,26219.15,330,-3.27,-0.21,-0.21,9.97,1:21:11,34.053669N,-113.234932W,29681.20,9.07,14
10182341,40.40,26122.64,341,-3.29,-0.24,-0.28,9.94,1:21:12,34.053696N,-113.234917W,29684.40,9.12,14
10183342,40.42,26053.46,326,-3.32,-0.26,-0.30,9.90,1:21:13,34.053730N,-113.234894W,29687.50,9.38,14
10184343,40.44,26028.25,362,-3.29,-0.34,-0.26,9.91,1:21:14,34.053768N,-113.234879W,29690.50,9.71,14
10185344,40.40,26071.56,361,-3.23,-0.34,-0.24,9.91,1:21:15,34.053806N,-113.234871W,29693.40,10.04,14
10186345,40.37,26368.15,410,-3.28,-0.29,-0.16,9.96,1:21:16,34.053844N,-113.234856W,29696.20,10.11,14
10187346,40.36,26823.71,397,-3.25,-0.20,-0.20,10.02,1:21:17,34.053883N,-113.234825W,29698.80,10.08,14
10188347,40.39,26729.37,405,-3.16,-0.18,-0.25,10.07,1:21:18,34.053921N,-113.234818W,29701.30,9.76,14
10189348,40.44,25866.17,20,-3.21,-0.32,-0.26,10.07,1:21:19,34.053955N,-113.234802W,29703.80,9.42,14
10190349,40.51,25226.86,400,-3.22,-0.37,-0.17,10.07,1:21:20,34.053993N,-113.234787W,29706.20,9.32,14
10191350,40.94,24979.45,379,-3.22,-0.36,-0.16,10.10,1:21:21,34.054028N,-113.234787W,29708.80,9.25,14
10192351,41.39,24990.80,367,-3.20,-0.25,-0.20,10.13,1:21:22,34.054066N,-113.234779W,29711.30,9.25,14
10193352,41.61,25152.68,358,-3.22,-0.21,-0.25,10.15,1:21:23,34.054100N,-113.234764W,29713.90,9.27,14
10194353,41.55,25299.25,364,-3.19,-0.26,-0.32,10.17,1:21:24,34.054138N,-113.234749W,29716.40,9.23,14
10195354,41.37,25410.08,367,-3.16,-0.35,-0.30,10.17,1:21:25,34.054173N,-113.234741W,29719.00,8.74,14
10196355,41.25,25488.71,375,-3.16,-0.38,-0.26,10.15,1:21:26,34.054203N,-113.234726W,29721.80,8.00,14
10197356,41.17,25555.85,360,-3.15,-0.27,-0.19,10.11,1:21:27,34.054230N,-113.234711W,29724.70,7.17,14
10198357,41.12,25604.44,342,-3.18,-0.17,-0.21,10.02,1:21:28,34.054256N,-113.234703W,29727.70,6.48,14
10199358,41.09,25656.87,370,-3.15,-0.24,-0.28,9.95,1:21:29,34.054276N,-113.234688W,29730.80,5.86,14
10200359,41.07,25767.02,365,-3.14,-0.36,-0.28,9.90,1:21:30,34.054295N,-113.234665W,29734.00,5.46,14
10201360,41.06,26207.90,386,-3.13,-0.35,-0.18,9.92,1:21:31,34.054310N,-113.234650W,29737.20,5.24,14
10202361,41.04,26712.44,419,-3.14,-0.27,-0.18,9.97,1:21:32,34.054325N,-113.234634W,29740.10,5.23,14
10203362,41.04,26534.73,414,-3.12,-0.22,-0.28,9.99,1:21:33,34.054337N,-113.234612W,29742.90,5.16,14
10204363,41.05,25873.10,431,-3.13,-0.24,-0.32,10.03,1:21:34,34.054344N,-113.234596W,29745.80,4.82,14
10205364,41.06,25425.70,416,-3.12,-0.34,-0.29,9.99,1:21:35,34.054352N,-113.234573W,29748.50,4.48,14
10206365,41.08,25391.42,395,-3.12,-0.37,-0.27,9.99,1:21:36,34.054356N,-113.234558W,29751.20,4.14,14
10207366,41.10,25485.54,392,-3.12,-0.33,-0.21,10.03,1:21:37,34.054363N,-113.234550W,29753.80,3.80,14
10208367,41.12,25660.16,429,-3.09,-0.24,-0.12,10.09,1:21:38,34.054371N,-113.234520W,29756.40,3.58,14
10209368,41.14,26115.30,403,-3.12,-0.28,-0.11,10.12,1:21:39,34.054379N,-113.234512W,29759.00,3.55,14
10210369,41.17,26571.31,385,-3.10,-0.29,-0.20,10.14,1:21:40,34.054382N,-113.234497W,29761.60,3.53,14
