time_since_start,bme_temp,bme_alt,uv,ism_temp,acc_x,acc_y,acc_z,gps_time,latitude,longitude,gps_alt,speed,sats
12013170,-14.93,6552.17,186,-18.16,1.23,-0.63,11.80,1:51:43,34.183823N,-112.956566W,6689.60,20.98,14
12014171,-14.94,6543.79,49,-18.15,-2.30,4.76,10.60,1:51:44,34.183872N,-112.956451W,6680.50,28.61,14
12015172,-14.96,6535.42,273,-18.09,-0.87,0.11,12.25,1:51:45,34.183964N,-112.956329W,6670.50,32.26,14
12016173,-14.94,6528.20,81,-18.17,1.06,-1.21,10.03,1:51:46,34.184078N,-112.956253W,6661.80,29.82,14
12017174,-14.87,6544.78,287,-18.18,-9.93,4.60,9.67,1:51:47,34.184170N,-112.956223W,6653.00,23.56,14
12018175,-14.83,6520.66,161,-18.19,-0.54,-11.74,10.44,1:51:48,34.184235N,-112.956215W,6644.20,16.62,14
12019176,-14.76,6508.54,52,-18.20,2.98,-2.65,10.13,1:51:49,34.184280N,-112.956184W,6635.40,13.08,14
12020177,-14.72,6485.50,216,-18.24,-1.80,3.65,10.20,1:51:50,34.184319N,-112.956123W,6626.50,15.64,14
12021178,-14.72,6464.96,250,-18.25,-5.88,-1.23,11.97,1:51:51,34.184349N,-112.956017W,6617.30,23.22,14
12022179,-14.73,6460.24,238,-18.30,1.81,3.60,10.14,1:51:52,34.184402N,-112.955879W,6608.20,29.18,14
12023180,-14.70,6455.36,274,-18.34,0.51,-2.20,10.73,1:51:53,34.184494N,-112.955765W,6600.00,31.13,14
12024181,-14.64,6446.91,282,-18.31,-3.17,-0.19,8.60,1:51:54,34.184597N,-112.955688W,6591.90,30.00,14
12025182,-14.61,6448.86,353,-18.39,2.79,1.30,10.74,1:51:55,34.184708N,-112.955650W,6583.30,28.46,14
12026183,-14.53,6446.91,325,-18.39,-1.57,2.88,10.52,1:51:56,34.184795N,-112.955650W,6574.70,23.31,14
12027184,-14.49,6418.84,204,-18.37,-0.62,2.76,10.24,1:51:57,34.184872N,-112.955650W,6566.40,18.54,14
12028185,-14.43,6410.26,239,-18.35,-0.48,2.17,9.38,1:51:58,34.184917N,-112.955673W,6557.70,10.01,14
12029186,-14.36,6406.22,171,-18.39,-2.58,4.46,11.52,1:51:59,34.184944N,-112.955658W,6548.70,6.84,14
12030187,-14.32,6396.36,146,-18.39,4.33,-3.94,10.32,1:52:0,34.184963N,-112.955612W,6539.60,13.58,14
12031188,-14.30,6389.90,132,-18.41,-0.53,6.67,10.13,1:52:1,34.185005N,-112.955536W,6530.70,23.01,14
12032189,-14.31,6382.63,260,-18.46,-3.29,0.55,10.72,1:52:2,34.185093N,-112.955406W,6521.70,28.68,14
12033190,-14.29,6375.54,311,-18.49,1.63,2.78,12.00,1:52:3,34.185192N,-112.955330W,6511.90,30.96,13
12034191,-14.24,6387.64,355,-18.48,1.62,-2.72,10.48,1:52:4,34.185329N,-112.955299W,6502.90,32.63,14
12035192,-14.17,6374.73,278,-18.52,-3.41,-2.93,11.11,1:52:5,34.185448N,-112.955330W,6493.70,28.00,14
12036193,-14.07,6356.86,214,-18.50,0.55,5.18,9.63,1:52:6,34.185528N,-112.955338W,6484.80,19.01,14
12037194,-13.97,6347.38,179,-18.53,-2.71,2.13,8.67,1:52:7,34.185577N,-112.955338W,6476.40,10.52,14
12038195,-13.91,6335.65,164,-18.55,-1.22,-3.67,11.17,1:52:8,34.185608N,-112.955299W,6467.60,12.75,14
12039196,-13.88,6326.83,174,-18.53,2.11,4.38,11.24,1:52:9,34.185646N,-112.955223W,6458.10,18.34,14
12040197,-13.89,6313.70,314,-18.55,-0.51,-11.20,7.90,1:52:10,34.185692N,-112.955139W,6449.00,25.60,14
12041198,-13.86,6305.85,55,-18.55,-2.44,4.09,8.21,1:52:11,34.185783N,-112.955063W,6440.40,22.51,14
12042199,-13.77,6289.56,325,-18.55,0.00,-3.40,9.29,1:52:12,34.185863N,-112.955032W,6432.00,20.73,14
12043200,-13.69,6283.33,192,-18.57,-1.57,-2.70,11.92,1:52:13,34.185944N,-112.955017W,6423.30,18.29,14
12044201,-13.61,6275.36,204,-18.55,0.21,-2.17,11.95,1:52:14,34.185993N,-112.955017W,6414.30,10.36,14
12045202,-13.48,6268.83,455,-18.57,2.98,-2.93,10.69,1:52:15,34.186031N,-112.955017W,6405.60,10.36,14
12046203,-13.44,6261.98,247,-18.57,-0.69,-2.16,9.09,1:52:16,34.186085N,-112.955009W,6398.00,16.28,14
12047204,-13.42,6254.98,288,-18.57,2.06,5.23,11.02,1:52:17,34.186165N,-112.954994W,6390.20,22.74,14
12048205,-13.40,6239.25,297,-18.57,-0.77,3.55,9.12,1:52:18,34.186275N,-112.954941W,6382.20,27.58,14
12049206,-13.26,6246.87,341,-18.57,-5.04,-4.44,9.31,1:52:19,34.186378N,-112.954865W,6373.90,26.13,14
12050207,-13.22,6237.66,317,-18.57,5.67,-4.37,12.67,1:52:20,34.186447N,-112.954803W,6366.60,24.41,14
12051208,-13.18,6227.03,169,-18.57,-1.08,7.92,5.38,1:52:21,34.186497N,-112.954750W,6357.60,16.63,14
12052209,-13.12,6218.63,136,-18.57,-4.02,6.02,9.27,1:52:22,34.186550N,-112.954689W,6349.20,17.68,13
12053210,-13.11,6209.77,205,-18.57,-1.10,4.59,8.25,1:52:23,34.186623N,-112.954651W,6341.90,20.11,14
12054211,-13.13,6193.01,99,-18.58,7.64,2.79,11.10,1:52:24,34.186710N,-112.954613W,6334.10,25.11,14
12055212,-13.12,6186.22,282,-18.58,3.54,3.01,11.24,1:52:25,34.186844N,-112.954582W,6324.90,29.01,14
12056213,-13.08,6179.44,296,-18.59,-0.85,3.25,9.34,1:52:26,34.186970N,-112.954506W,6316.80,34.97,14
12057214,-13.00,6173.13,341,-18.60,3.71,-6.10,9.66,1:52:27,34.187077N,-112.954430W,6309.20,25.00,14
12058215,-12.89,6175.03,299,-18.59,5.57,4.99,6.00,1:52:28,34.187130N,-112.954369W,6301.50,16.62,14
12059216,-12.76,6161.01,223,-18.58,-6.40,3.70,8.95,1:52:29,34.187180N,-112.954315W,6299.10,19.39,15
12060217,-12.64,6148.74,192,-18.62,-1.02,0.73,10.98,1:52:30,34.187248N,-112.954292W,6293.10,16.70,15
12061218,-12.56,6141.04,6,-18.59,-5.55,1.41,11.44,1:52:31,34.187309N,-112.954277W,6285.80,14.10,15
12062219,-12.52,6132.57,148,-18.60,6.91,7.70,11.75,1:52:32,34.187393N,-112.954292W,6277.70,25.62,15
12063220,-12.51,6117.99,293,-18.61,1.19,4.83,7.32,1:52:33,34.187523N,-112.954239W,6267.60,29.36,15
12064221,-12.48,6106.88,355,-18.63,-1.16,-1.39,9.37,1:52:34,34.187595N,-112.954163W,6262.30,27.68,15
12065222,-12.36,6101.25,335,-18.64,-4.96,1.29,11.04,1:52:35,34.187660N,-112.954086W,6255.10,33.40,15
12066223,-12.30,6095.15,220,-18.64,-3.36,4.15,12.04,1:52:36,34.187721N,-112.953995W,6248.00,34.41,14
12067224,-12.20,6085.63,211,-18.65,-0.96,-2.98,10.31,1:52:37,34.187782N,-112.953972W,6240.20,11.74,13
12068225,-12.12,6081.73,104,-18.66,0.13,2.36,9.79,1:52:38,34.187820N,-112.953972W,6227.80,13.81,15
12069226,-12.07,6073.78,195,-18.64,1.14,-0.86,12.26,1:52:39,34.187889N,-112.953995W,6216.40,19.64,15
12070227,-12.04,6065.52,233,-18.76,6.81,-4.36,10.83,1:52:40,34.187984N,-112.954025W,6206.60,26.90,15
12071228,-11.99,6044.99,223,-18.76,-0.40,-2.86,10.55,1:52:41,34.188114N,-112.953995W,6198.00,28.46,15
12072229,-11.94,6040.49,293,-18.70,4.89,-3.84,11.33,1:52:42,34.188221N,-112.953949W,6189.40,30.55,15
12073230,-11.89,6035.98,353,-18.76,-2.60,0.43,9.36,1:52:43,34.188309N,-112.953857W,6180.80,28.52,15
12074231,-11.81,6028.07,364,-18.82,-5.12,1.92,10.72,1:52:44,34.188366N,-112.953781W,6172.20,20.53,15
12075232,-11.68,6022.18,250,-18.84,-3.61,14.32,13.02,1:52:45,34.188400N,-112.953712W,6164.20,15.42,15
12076233,-11.58,6013.66,254,-18.84,8.35,3.57,8.90,1:52:46,34.188427N,-112.953674W,6155.50,8.98,15
12077234,-11.54,6002.21,96,-18.90,9.31,1.77,8.31,1:52:47,34.188469N,-112.953674W,6146.80,11.05,15
12078235,-11.54,5993.41,185,-18.85,-0.44,-7.02,7.97,1:52:48,34.188545N,-112.953674W,6137.70,19.34,15
12079236,-11.57,5982.60,87,-18.82,-3.63,12.97,11.85,1:52:49,34.188648N,-112.953636W,6128.50,29.74,15
12080237,-11.54,5956.26,63,-18.84,-6.09,5.25,9.27,1:52:50,34.188808N,-112.953560W,6116.90,36.84,15
12081238,-11.32,5932.29,65,-18.87,-4.63,-1.19,7.14,1:52:51,34.188904N,-112.953514W,6110.60,19.28,15
12082239,-11.16,5959.49,292,-18.91,-1.12,0.47,5.92,1:52:52,34.188950N,-112.953468W,6104.50,16.06,15
12083240,-11.10,5940.89,57,-18.92,-1.47,-7.87,9.61,1:52:53,34.188995N,-112.953423W,6101.00,14.89,15
12084241,-11.04,5935.51,218,-18.89,-2.14,5.01,11.50,1:52:54,34.189030N,-112.953392W,6095.50,14.05,15
12085242,-10.97,5926.61,233,-18.91,-1.60,-2.20,11.66,1:52:55,34.189056N,-112.953369W,6086.60,8.71,15
12086243,-10.94,5904.72,242,-18.99,-1.99,2.04,9.71,1:52:56,34.189083N,-112.953316W,6075.20,16.94,15
12087244,-10.91,5903.80,272,-18.93,-1.18,-0.07,8.99,1:52:57,34.189117N,-112.953255W,6062.30,17.35,15
12088245,-10.85,5924.01,323,-19.00,1.96,1.08,12.33,1:52:58,34.189156N,-112.953178W,6052.80,18.19,15
12089246,-10.77,5913.29,301,-19.03,-3.20,0.89,8.38,1:52:59,34.189194N,-112.953102W,6043.40,19.23,15
12090247,-10.70,5902.12,277,-19.01,-2.80,2.66,11.24,1:53:0,34.189224N,-112.953026W,6034.20,14.26,14
12091248,-10.60,5892.18,199,-19.06,-0.56,-2.31,11.30,1:53:1,34.189259N,-112.952988W,6025.30,10.17,14
12092249,-10.47,5881.19,155,-19.03,-0.54,0.89,10.45,1:53:2,34.189293N,-112.952972W,6015.60,9.86,15
12093250,-10.37,5863.36,219,-19.05,-1.60,-0.64,10.63,1:53:3,34.189342N,-112.952988W,6005.80,13.66,15
12094251,-10.17,5841.46,199,-19.06,-1.15,-0.00,10.11,1:53:4,34.189411N,-112.953011W,5995.70,20.38,15
12095252,-10.09,5823.86,215,-19.06,-1.74,-1.47,10.85,1:53:5,34.189507N,-112.953026W,5986.00,24.98,15
12096253,-10.09,5821.89,273,-19.07,-0.63,-1.58,10.16,1:53:6,34.189640N,-112.953011W,5975.60,28.23,15
12097254,-10.09,5802.51,265,-19.07,-0.68,-1.70,11.80,1:53:7,34.189762N,-112.952972W,5965.50,31.10,15
12098255,-10.08,5782.27,304,-19.06,-1.27,1.40,11.84,1:53:8,34.189877N,-112.952911W,5955.80,31.02,15
12099256,-9.63,5771.56,331,-19.09,0.06,0.20,8.71,1:53:9,34.189976N,-112.952835W,5947.10,28.61,15
12100257,-9.61,5773.07,362,-19.09,-3.17,-2.88,9.76,1:53:10,34.190044N,-112.952759W,5937.40,23.11,15
12101258,-9.62,5771.71,267,-19.06,-0.35,1.64,9.07,1:53:11,34.190086N,-112.952705W,5928.80,17.30,15
12102259,-9.57,5767.94,191,-19.09,-0.77,-0.84,7.70,1:53:12,34.190128N,-112.952667W,5919.90,12.03,15
12103260,-9.51,5758.76,215,-19.07,-3.16,0.70,8.37,1:53:13,34.190170N,-112.952652W,5910.90,9.93,14
12104261,-9.41,5754.24,205,-19.09,-0.11,1.67,9.42,1:53:14,34.190224N,-112.952667W,5901.40,15.87,15
12105262,-9.40,5747.93,215,-19.07,-0.61,0.17,12.97,1:53:15,34.190296N,-112.952690W,5892.00,20.49,15
12106263,-9.38,5729.46,214,-19.09,-2.36,0.41,11.14,1:53:16,34.190395N,-112.952713W,5882.50,25.44,15
12107264,-9.37,5725.26,194,-19.08,2.37,1.54,11.39,1:53:17,34.190525N,-112.952728W,5873.40,28.46,15
12108265,-9.33,5715.06,255,-19.08,1.03,-0.56,10.89,1:53:18,34.190647N,-112.952705W,5864.40,30.43,15
12109266,-9.31,5713.42,257,-19.08,0.54,0.11,9.61,1:53:19,34.190762N,-112.952667W,5855.90,29.66,15
12110267,-9.25,5707.43,267,-19.09,-1.86,-0.15,10.59,1:53:20,34.190872N,-112.952614W,5847.20,29.59,15
12111268,-9.19,5715.81,297,-19.09,-0.45,0.13,10.64,1:53:21,34.190971N,-112.952553W,5838.80,27.30,15
12112269,-9.12,5705.33,287,-19.09,0.20,-1.32,10.78,1:53:22,34.191040N,-112.952477W,5830.10,23.32,15
12113270,-9.03,5688.59,313,-19.09,-1.74,0.33,12.37,1:53:23,34.191097N,-112.952408W,5822.20,19.77,15
12114271,-8.85,5665.32,273,-19.09,-0.97,-0.11,9.28,1:53:24,34.191147N,-112.952347W,5813.60,14.97,15
12115272,-8.37,5655.50,221,-19.10,-3.05,1.01,9.67,1:53:25,34.191185N,-112.952309W,5804.70,10.37,14
12116273,-8.17,5650.14,166,-19.11,-1.33,1.27,11.26,1:53:26,34.191219N,-112.952309W,5795.70,10.29,14
12117274,-8.21,5640.18,199,-19.09,0.08,-0.03,11.60,1:53:27,34.191269N,-112.952309W,5787.00,13.85,15
12118275,-8.12,5634.69,194,-19.12,-0.98,1.50,11.66,1:53:28,34.191338N,-112.952332W,5778.20,19.20,15
12119276,-8.19,5633.95,197,-19.10,-3.02,-0.24,9.39,1:53:29,34.191429N,-112.952347W,5769.30,24.91,15
12120277,-8.25,5617.33,265,-19.09,-1.78,3.38,9.84,1:53:30,34.191559N,-112.952332W,5760.80,26.86,15
12121278,-8.26,5628.45,302,-19.11,-1.12,2.24,10.21,1:53:31,34.191658N,-112.952271W,5751.40,26.94,15
12122279,-8.26,5622.67,306,-19.12,-0.43,-1.91,10.55,1:53:32,34.191730N,-112.952202W,5742.80,25.38,15
12123280,-8.24,5616.30,296,-19.12,-1.57,3.64,9.67,1:53:33,34.191788N,-112.952126W,5734.30,21.07,15
12124281,-8.21,5604.16,231,-19.14,2.14,-2.69,9.74,1:53:34,34.191826N,-112.952049W,5725.40,16.06,15
12125282,-8.13,5593.06,267,-19.14,-0.22,-0.65,11.55,1:53:35,34.191860N,-112.952003W,5716.90,12.18,15
12126283,-8.04,5582.28,236,-19.13,-0.67,0.22,8.99,1:53:36,34.191883N,-112.951973W,5708.90,8.41,15
12127284,-7.93,5572.10,218,-19.16,0.68,1.90,9.40,1:53:37,34.191914N,-112.951965W,5701.00,8.43,14
12128285,-7.83,5560.76,47,-19.13,4.04,-2.27,7.40,1:53:38,34.191956N,-112.951965W,5693.50,12.02,15
12129286,-7.68,5552.07,117,-19.16,0.33,-5.82,11.86,1:53:39,34.192013N,-112.951973W,5685.50,14.79,15
12130287,-7.62,5544.13,209,-19.18,-1.15,4.42,9.25,1:53:40,34.192085N,-112.951988W,5677.80,19.31,15
12131288,-7.58,5535.76,210,-19.14,3.77,3.56,10.12,1:53:41,34.192169N,-112.951988W,5670.20,20.64,15
12132289,-7.50,5527.83,239,-19.21,-1.53,-1.29,10.62,1:53:42,34.192261N,-112.951973W,5662.80,23.89,15
12133290,-7.44,5520.06,268,-19.20,2.38,-2.93,10.09,1:53:43,34.192375N,-112.951935W,5655.60,24.64,15
12134291,-7.37,5512.87,272,-19.20,6.26,2.71,8.62,1:53:44,34.192467N,-112.951897W,5648.20,24.55,15
12135292,-7.28,5504.82,275,-19.18,1.44,1.48,10.81,1:53:45,34.192554N,-112.951836W,5640.90,24.54,15
12136293,-7.19,5497.07,286,-19.21,3.21,-0.17,8.69,1:53:46,34.192638N,-112.951767W,5633.50,24.57,15
12137294,-7.11,5491.80,259,-19.18,-4.64,4.60,6.03,1:53:47,34.192715N,-112.951721W,5625.80,22.01,15
12138295,-7.02,5465.53,196,-19.23,0.49,-1.06,9.44,1:53:48,34.192791N,-112.951683W,5618.20,21.04,15
12139296,-6.71,5461.31,245,-19.23,-4.79,3.72,9.55,1:53:49,34.192875N,-112.951653W,5610.50,22.65,15
12140297,-6.67,5450.68,243,-19.27,1.00,-1.42,9.37,1:53:50,34.192970N,-112.951645W,5602.70,22.57,15
12141298,-6.65,5437.01,248,-19.26,-0.53,-0.93,10.97,1:53:51,34.193073N,-112.951630W,5594.80,24.15,15
12142299,-6.63,5425.25,221,-19.26,-1.94,-2.96,9.91,1:53:52,34.193165N,-112.951607W,5586.50,25.59,15
12143300,-6.55,5423.95,244,-19.28,3.91,1.72,10.77,1:53:53,34.193268N,-112.951569W,5579.20,25.18,15
12144301,-6.49,5424.67,257,-19.27,-2.66,-5.61,11.08,1:53:54,34.193359N,-112.951515W,5571.80,25.71,15
12145302,-6.42,5419.60,258,-19.30,-2.50,-1.92,13.32,1:53:55,34.193451N,-112.951462W,5564.00,24.75,15
12146303,-6.35,5414.96,221,-19.30,6.02,-7.37,9.96,1:53:56,34.193531N,-112.951385W,5556.60,23.38,15
12147304,-6.26,5409.74,206,-19.33,-6.25,0.91,7.19,1:53:57,34.193600N,-112.951324W,5549.30,23.72,15
12148305,-6.17,5401.78,239,-19.27,-3.24,1.19,8.52,1:53:58,34.193676N,-112.951256W,5541.80,22.94,15
12149306,-6.09,5399.46,286,-19.30,-3.49,-2.34,7.89,1:53:59,34.193760N,-112.951195W,5534.10,24.73,15
12150307,-6.09,5391.94,298,-19.30,-5.18,-0.41,8.78,1:54:0,34.193844N,-112.951157W,5526.70,22.74,15
12151308,-6.05,5385.58,259,-19.34,-3.75,0.42,8.27,1:54:1,34.193916N,-112.951126W,5519.50,18.96,15
12152309,-5.95,5364.08,249,-19.35,-4.09,-1.21,9.15,1:54:2,34.193981N,-112.951103W,5512.20,16.92,15
12153310,-5.85,5353.14,197,-19.34,0.54,1.65,8.96,1:54:3,34.194031N,-112.951065W,5504.70,14.93,15
12154311,-5.69,5349.54,83,-19.34,-0.85,-0.55,9.87,1:54:4,34.194077N,-112.951012W,5496.80,13.49,15
12155312,-5.63,5345.37,206,-19.37,-1.45,3.22,10.89,1:54:5,34.194107N,-112.950951W,5488.10,14.11,15
12156313,-5.55,5339.47,167,-19.33,0.78,0.32,11.00,1:54:6,34.194138N,-112.950897W,5479.20,15.62,15
12157314,-5.48,5331.42,185,-19.36,-3.01,0.65,8.49,1:54:7,34.194183N,-112.950821W,5470.80,19.58,15
12158315,-5.43,5315.50,253,-19.43,0.03,-1.78,10.30,1:54:8,34.194248N,-112.950760W,5462.90,21.82,15
12159316,-5.37,5311.34,291,-19.39,-1.77,-0.41,10.75,1:54:9,34.194336N,-112.950706W,5455.00,24.56,15
12160317,-5.33,5289.87,360,-19.39,-0.59,1.64,8.89,1:54:10,34.194447N,-112.950668W,5446.20,26.82,15
12161318,-5.04,5288.30,297,-19.40,-2.94,-3.89,9.60,1:54:11,34.194557N,-112.950645W,5437.80,27.18,15
12162319,-4.99,5285.87,253,-19.41,-3.21,-3.71,8.28,1:54:12,34.194630N,-112.950645W,5429.40,17.55,15
12163320,-4.92,5278.44,142,-19.37,-5.08,1.29,11.45,1:54:13,34.194679N,-112.950615W,5420.90,12.73,15
12164321,-4.88,5262.75,306,-19.40,-1.21,-1.09,9.27,1:54:14,34.194725N,-112.950577W,5412.60,13.93,15
12165322,-4.90,5259.47,244,-19.39,4.23,-0.70,9.29,1:54:15,34.194767N,-112.950516W,5404.90,18.55,15
12166323,-4.88,5270.31,53,-19.39,1.00,-6.03,8.61,1:54:16,34.194832N,-112.950455W,5397.60,22.39,15
12167324,-4.82,5262.75,97,-19.46,-2.88,-2.39,9.94,1:54:17,34.194912N,-112.950417W,5389.60,19.22,15
12168325,-4.74,5253.91,214,-19.42,1.37,0.95,10.16,1:54:18,34.194981N,-112.950401W,5382.00,16.89,15
12169326,-4.67,5100.27,238,-19.43,-4.60,2.45,10.27,1:54:19,34.195034N,-112.950371W,5374.20,12.59,15
12170327,-4.64,5127.90,104,-19.46,3.60,-1.59,10.18,1:54:20,34.195076N,-112.950333W,5366.10,14.41,15
12171328,-4.63,5134.78,308,-19.46,-6.06,4.21,8.14,1:54:21,34.195129N,-112.950272W,5358.00,21.83,15
12172329,-4.28,5143.93,323,-19.42,0.66,2.46,9.69,1:54:22,34.195210N,-112.950218W,5350.50,23.23,15
12173330,-4.25,5158.15,263,-19.45,1.02,-4.47,9.70,1:54:23,34.195290N,-112.950195W,5342.40,18.92,15
12174331,-4.24,5164.49,204,-19.48,1.36,-0.98,11.35,1:54:24,34.195358N,-112.950172W,5335.10,16.74,15
12175332,-4.22,5167.88,209,-19.50,-0.23,-1.50,10.80,1:54:25,34.195419N,-112.950157W,5327.10,14.69,15
12176333,-4.20,5164.92,257,-19.46,-5.16,-4.75,9.09,1:54:26,34.195450N,-112.950142W,5319.20,7.87,15
12177334,-4.17,5158.99,294,-19.45,-2.71,-1.23,8.93,1:54:27,34.195488N,-112.950134W,5311.60,12.40,15
12178335,-3.91,5157.30,216,-19.45,-1.15,-1.97,11.36,1:54:28,34.195538N,-112.950134W,5304.10,13.01,15
12179336,-3.89,5153.92,133,-19.50,0.84,-2.77,9.03,1:54:29,34.195595N,-112.950134W,5296.30,14.47,15
12180337,-3.86,5146.04,215,-19.48,-6.14,-2.74,6.88,1:54:30,34.195652N,-112.950134W,5288.10,15.52,15
12181338,-3.85,5128.88,210,-19.48,-4.75,-3.49,9.49,1:54:31,34.195717N,-112.950104W,5280.50,18.29,15
12182339,-3.88,5126.49,275,-19.44,4.95,6.76,9.29,1:54:32,34.195786N,-112.950058W,5272.60,20.84,15
12183340,-3.86,5106.57,333,-19.48,-1.75,-3.47,6.73,1:54:33,34.195862N,-112.950027W,5265.00,19.50,14
12184341,-3.73,5127.48,240,-19.50,4.16,-3.32,10.44,1:54:34,34.195942N,-112.950005W,5258.00,21.85,15
12185342,-3.64,5121.58,230,-19.54,1.94,2.59,9.56,1:54:35,34.196033N,-112.949989W,5250.80,22.71,15
12186343,-3.57,5114.70,205,-19.49,-3.41,-7.35,7.32,1:54:36,34.196133N,-112.950005W,5242.50,23.39,15
12187344,-3.52,5103.91,216,-19.54,2.67,-1.76,7.82,1:54:37,34.196209N,-112.949974W,5234.80,17.93,15
12188345,-3.43,5096.49,247,-19.56,1.07,1.45,11.05,1:54:38,34.196278N,-112.949951W,5226.80,17.06,15
12189346,-3.39,5086.41,255,-19.54,1.13,1.02,11.98,1:54:39,34.196346N,-112.949890W,5218.70,22.59,15
12190347,-3.34,5079.28,107,-19.55,0.85,-0.22,8.76,1:54:40,34.196400N,-112.949799W,5209.30,20.76,15
12191348,-3.31,5070.07,52,-19.54,-3.30,3.54,8.49,1:54:41,34.196468N,-112.949738W,5201.70,23.31,15
12192349,-3.21,5063.09,319,-19.54,-0.86,1.21,9.84,1:54:42,34.196571N,-112.949699W,5194.20,27.70,15
12193350,-3.17,5032.04,313,-19.51,4.54,2.77,11.56,1:54:43,34.196674N,-112.949684W,5185.20,23.96,15
12194351,-2.77,5031.62,206,-19.52,-2.23,-1.39,8.22,1:54:44,34.196754N,-112.949707W,5176.00,19.74,15
12195352,-2.79,5025.78,273,-19.55,-0.69,-6.05,10.09,1:54:45,34.196819N,-112.949722W,5168.60,14.95,15
12196353,-2.80,5018.70,153,-19.52,-0.40,-0.25,10.25,1:54:46,34.196869N,-112.949699W,5160.80,13.66,15
12197354,-2.85,5013.84,176,-19.54,-0.57,-1.22,10.95,1:54:47,34.196915N,-112.949631W,5152.20,19.91,15
12198355,-2.91,5008.30,199,-19.56,0.42,-5.88,10.70,1:54:48,34.196987N,-112.949539W,5143.40,27.66,15
12199356,-2.95,5002.61,72,-19.55,5.33,0.97,11.85,1:54:49,34.197105N,-112.949463W,5134.00,32.38,15
12200357,-2.96,4994.16,333,-19.59,0.68,-3.18,11.05,1:54:50,34.197224N,-112.949463W,5125.90,38.44,15
12201358,-2.95,4986.69,243,-19.57,2.47,-2.10,11.24,1:54:51,34.197342N,-112.949493W,5117.90,26.27,15
12202359,-2.91,4979.36,112,-19.55,-0.46,-2.84,11.35,1:54:52,34.197403N,-112.949532W,5111.10,5.80,15
12203360,-2.86,4972.04,0,-19.58,-3.88,-1.94,10.83,1:54:53,34.197426N,-112.949554W,5101.00,7.01,15
12204361,-2.83,4963.89,166,-19.57,1.45,-0.32,11.55,1:54:54,34.197445N,-112.949539W,5092.40,7.06,15
12205362,-2.81,4928.63,205,-19.55,-1.12,-2.07,10.68,1:54:55,34.197468N,-112.949478W,5084.20,16.29,15
12206363,-2.83,4928.36,233,-19.55,2.75,-0.21,12.28,1:54:56,34.197525N,-112.949387W,5076.20,24.56,15
12207364,-2.84,4933.72,294,-19.59,0.14,-1.86,10.27,1:54:57,34.197632N,-112.949287W,5068.60,30.42,15
12208365,-2.82,4932.76,58,-19.57,1.66,0.82,9.41,1:54:58,34.197762N,-112.949249W,5059.80,31.34,15
12209366,-2.76,4926.16,242,-19.58,-3.33,0.74,8.44,1:54:59,34.197872N,-112.949249W,5051.30,28.86,15
12210367,-2.71,4908.58,59,-19.58,-8.05,-1.67,10.48,1:55:0,34.197960N,-112.949272W,5042.90,21.22,15
12211368,-2.62,4900.63,249,-19.58,3.07,-0.10,10.41,1:55:1,34.198025N,-112.949272W,5034.70,12.73,15
12212369,-2.59,4889.26,186,-19.58,-3.40,0.41,10.37,1:55:2,34.198074N,-112.949249W,5026.40,12.74,15
12213370,-2.60,4884.06,186,-19.59,4.22,-2.46,9.91,1:55:3,34.198124N,-112.949181W,5018.50,20.91,15
12214371,-2.59,4878.73,308,-19.56,-5.79,1.04,8.06,1:55:4,34.198204N,-112.949104W,5010.40,26.75,15
12215372,-2.56,4880.10,325,-19.57,6.45,-5.07,8.82,1:55:5,34.198315N,-112.949043W,5003.20,26.84,15
12216373,-2.49,4870.80,167,-19.57,-1.10,-0.37,11.18,1:55:6,34.198429N,-112.949059W,4993.00,28.79,15
12217374,-2.41,4861.65,59,-19.59,2.00,3.27,6.68,1:55:7,34.198544N,-112.949081W,4984.30,27.85,15
12218375,-2.35,4853.88,208,-19.54,-0.56,-2.69,8.00,1:55:8,34.198654N,-112.949066W,4976.50,24.90,15
12219376,-2.31,4841.75,252,-19.57,-6.31,-1.14,9.14,1:55:9,34.198730N,-112.949028W,4969.10,21.58,15
12220377,-2.30,4833.99,53,-19.59,1.02,0.41,11.04,1:55:10,34.198822N,-112.948982W,4960.40,27.07,15
12221378,-2.25,4826.91,259,-19.59,-3.60,-1.04,13.08,1:55:11,34.198925N,-112.948906W,4952.20,30.32,15
12222379,-2.20,4825.42,316,-19.59,2.97,-3.71,9.69,1:55:12,34.199028N,-112.948853W,4944.40,26.00,15
12223380,-2.11,4838.21,274,-19.56,1.84,2.12,10.13,1:55:13,34.199120N,-112.948853W,4936.80,39.86,15
12224381,-2.05,4819.58,242,-19.58,-5.11,-1.84,9.67,1:55:14,34.199219N,-112.948868W,4927.30,53.52,14
12225382,-1.99,4807.35,187,-19.59,1.56,0.78,11.41,1:55:15,34.199272N,-112.948837W,4921.80,11.81,15
12226383,-1.96,4794.07,135,-19.60,-1.61,2.12,10.12,1:55:16,34.199314N,-112.948853W,4909.50,10.87,15
12227384,-1.97,4784.05,171,-19.61,-0.36,2.13,9.55,1:55:17,34.199360N,-112.948814W,4902.00,19.52,15
12228385,-2.00,4773.77,204,-19.59,0.28,2.27,11.16,1:55:18,34.199440N,-112.948738W,4894.30,28.13,15
12229386,-1.95,4764.31,291,-19.59,-2.43,2.21,11.25,1:55:19,34.199570N,-112.948669W,4886.10,34.01,15
12230387,-1.88,4760.26,342,-19.59,0.17,-1.42,11.42,1:55:20,34.199715N,-112.948662W,4877.60,38.39,15
12231388,-1.85,4736.93,312,-19.59,0.08,3.34,11.41,1:55:21,34.199860N,-112.948700W,4868.00,33.76,15
12232389,-1.77,4714.87,234,-19.60,-1.98,0.99,10.27,1:55:22,34.199955N,-112.948746W,4860.40,20.75,15
12233390,-1.72,4709.23,233,-19.58,-0.82,-0.57,10.61,1:55:23,34.200005N,-112.948799W,4853.80,14.08,15
12234391,-1.66,4703.46,64,-19.58,-2.90,-0.18,11.47,1:55:24,34.200058N,-112.948799W,4845.10,9.65,15
12235392,-1.63,4701.31,131,-19.58,0.13,-2.95,9.32,1:55:25,34.200085N,-112.948776W,4837.70,7.78,15
12236393,-1.58,4697.29,165,-19.60,7.93,3.92,10.60,1:55:26,34.200115N,-112.948738W,4830.60,12.22,15
12237394,-1.53,4692.33,175,-19.57,1.30,-4.76,10.24,1:55:27,34.200157N,-112.948669W,4824.20,18.62,15
12238395,-1.46,4687.11,228,-19.57,0.91,-3.13,10.13,1:55:28,34.200218N,-112.948608W,4818.40,19.95,15
12239396,-1.39,4683.22,258,-19.59,-2.07,-0.22,11.57,1:55:29,34.200283N,-112.948547W,4812.40,21.74,15
12240397,-1.35,4677.20,172,-19.60,-1.78,0.45,9.98,1:55:30,34.200363N,-112.948479W,4805.70,23.65,15
12241398,-1.29,4670.51,199,-19.58,1.01,1.36,9.51,1:55:31,34.200481N,-112.948456W,4799.30,26.39,15
12242399,-1.23,4663.56,213,-19.59,7.01,1.42,12.61,1:55:32,34.200588N,-112.948456W,4791.50,27.92,15
12243400,-1.18,4657.68,224,-19.58,-4.87,-4.62,8.11,1:55:33,34.200718N,-112.948441W,4783.20,31.31,15
12244401,-1.12,4654.21,287,-19.59,-2.06,-1.56,9.58,1:55:34,34.200829N,-112.948425W,4776.20,26.17,15
12245402,-1.05,4620.64,294,-19.57,-1.79,1.56,10.61,1:55:35,34.200912N,-112.948402W,4768.70,21.43,15
12246403,-0.83,4630.62,263,-19.60,2.75,-2.59,11.03,1:55:36,34.200981N,-112.948349W,4760.40,18.84,15
12247404,-0.80,4621.30,196,-19.55,-4.97,1.56,11.06,1:55:37,34.201031N,-112.948303W,4751.70,14.12,15
12248405,-0.77,4616.25,180,-19.58,-6.93,-4.25,8.25,1:55:38,34.201069N,-112.948250W,4743.70,15.31,15
12249406,-0.77,4610.14,54,-19.60,1.18,1.92,7.57,1:55:39,34.201138N,-112.948212W,4737.20,22.21,15
12250407,-0.81,4601.51,254,-19.59,-2.80,5.80,14.08,1:55:40,34.201248N,-112.948174W,4730.40,29.15,15
12251408,-0.82,4600.58,283,-19.59,2.90,-1.18,14.22,1:55:41,34.201405N,-112.948151W,4721.90,36.24,15
12252409,-0.83,4603.50,292,-19.56,-5.66,5.14,12.28,1:55:42,34.201553N,-112.948151W,4713.10,36.31,15
12253410,-0.79,4589.04,199,-19.59,-4.83,0.01,9.52,1:55:43,34.201672N,-112.948174W,4706.40,29.83,15
12254411,-0.71,4580.43,125,-19.58,0.30,-1.74,10.35,1:55:44,34.201748N,-112.948174W,4698.40,19.71,15
12255412,-0.64,4569.44,89,-19.59,-1.51,0.14,11.54,1:55:45,34.201809N,-112.948174W,4690.20,13.12,15
12256413,-0.58,4561.38,195,-19.58,2.42,-4.52,11.73,1:55:46,34.201851N,-112.948135W,4681.70,13.03,15
12257414,-0.58,4542.11,186,-19.57,-3.16,2.93,10.35,1:55:47,34.201893N,-112.948067W,4673.10,20.96,15
12258415,-0.60,4537.10,216,-19.57,5.28,3.17,9.37,1:55:48,34.201954N,-112.947968W,4665.40,27.28,15
12259416,-0.58,4531.96,59,-19.58,-2.34,-2.93,10.18,1:55:49,34.202065N,-112.947853W,4658.50,32.71,15
12260417,-0.56,4526.56,257,-19.56,0.14,1.80,11.18,1:55:50,34.202209N,-112.947792W,4650.90,36.74,15
12261418,-0.54,4520.24,298,-19.57,-1.69,4.47,11.04,1:55:51,34.202351N,-112.947754W,4643.00,36.16,15
12262419,-0.48,4515.24,274,-19.55,1.04,-2.65,9.99,1:55:52,34.202488N,-112.947754W,4636.10,34.55,15
12263420,-0.40,4512.35,250,-19.56,-1.10,1.67,9.93,1:55:53,34.202614N,-112.947777W,4628.80,29.29,15
12264421,-0.29,4491.21,229,-19.56,-1.12,1.41,9.90,1:55:54,34.202698N,-112.947800W,4621.40,20.83,15
12265422,-0.21,4483.21,150,-19.58,-0.72,2.25,10.12,1:55:55,34.202759N,-112.947792W,4613.60,15.39,15
12266423,-0.04,4476.79,98,-19.60,4.15,-0.92,12.06,1:55:56,34.202816N,-112.947762W,4605.70,14.57,15
12267424,0.05,4469.59,204,-19.57,-1.86,-2.90,10.39,1:55:57,34.202866N,-112.947701W,4597.80,18.49,15
12268425,0.05,4456.91,48,-19.56,-0.41,0.04,9.48,1:55:58,34.202927N,-112.947609W,4590.20,24.60,15
12269426,0.08,4454.82,201,-19.57,-1.68,-0.05,10.56,1:55:59,34.203003N,-112.947495W,4583.60,27.68,15
12270427,0.09,4438.11,53,-19.58,-4.32,-0.89,9.60,1:56:0,34.203094N,-112.947418W,4576.90,27.93,15
12271428,0.26,4435.76,208,-19.55,2.54,1.00,9.98,1:56:1,34.203213N,-112.947365W,4570.00,30.44,15
12272429,0.30,4432.37,192,-19.55,-2.43,-1.75,10.29,1:56:2,34.203335N,-112.947342W,4563.90,31.04,15
12273430,0.34,4428.59,220,-19.57,4.96,4.17,10.25,1:56:3,34.203461N,-112.947342W,4555.70,30.98,15
12274431,0.38,4419.48,272,-19.56,1.66,-5.12,9.52,1:56:4,34.203590N,-112.947327W,4549.50,32.70,15
12275432,0.60,4412.45,284,-19.59,-2.24,5.53,8.65,1:56:5,34.203701N,-112.947311W,4542.70,19.62,15
12276433,0.62,4404.65,260,-19.59,-1.96,-0.88,8.74,1:56:6,34.203773N,-112.947273W,4537.60,23.03,15
12277434,0.67,4400.88,220,-19.54,-1.47,-0.55,11.50,1:56:7,34.203819N,-112.947212W,4529.90,17.81,15
12278435,0.71,4394.91,219,-19.55,2.08,-1.83,12.39,1:56:8,34.203857N,-112.947151W,4522.50,15.37,15
12279436,0.78,4389.20,192,-19.58,-1.29,8.07,10.12,1:56:9,34.203899N,-112.947075W,4515.30,17.20,15
12280437,0.78,4382.19,214,-19.56,-5.86,0.15,7.94,1:56:10,34.203953N,-112.946999W,4508.60,19.92,14
12281438,0.77,4376.88,57,-19.59,-1.81,-5.36,9.96,1:56:11,34.204063N,-112.946960W,4501.30,27.77,15
12282439,0.79,4362.64,335,-19.56,-0.51,2.60,10.94,1:56:12,34.204212N,-112.946930W,4493.30,31.51,15
12283440,0.94,4366.78,252,-19.54,2.42,3.42,12.20,1:56:13,34.204353N,-112.946915W,4484.60,32.92,15
12284441,0.98,4361.47,180,-19.57,-5.49,3.01,6.33,1:56:14,34.204464N,-112.946945W,4477.80,28.74,15
12285442,1.02,4340.80,189,-19.58,-1.90,-1.76,9.05,1:56:15,34.204536N,-112.946915W,4470.60,19.18,15
12286443,1.04,4330.22,219,-19.53,0.55,2.60,10.38,1:56:16,34.204601N,-112.946892W,4463.20,16.97,15
12287444,1.07,4325.84,206,-19.52,1.75,3.59,12.85,1:56:17,34.204659N,-112.946831W,4455.00,17.64,15
12288445,1.08,4317.72,243,-19.53,1.29,-3.02,10.32,1:56:18,34.204712N,-112.946754W,4446.30,22.55,15
12289446,1.11,4312.96,189,-19.51,-0.97,0.75,10.49,1:56:19,34.204781N,-112.946678W,4437.90,21.80,15
12290447,1.14,4293.80,226,-19.50,-5.53,-1.73,10.16,1:56:20,34.204861N,-112.946609W,4431.60,25.31,15
12291448,1.18,4282.25,288,-19.53,-0.60,-2.63,10.79,1:56:21,34.204975N,-112.946571W,4424.60,29.12,15
12292449,1.23,4281.61,313,-19.51,-1.34,-3.20,9.02,1:56:22,34.205101N,-112.946571W,4417.30,29.93,15
12293450,1.31,4298.04,299,-19.54,1.71,0.01,9.25,1:56:23,34.205208N,-112.946602W,4410.10,27.49,15
12294451,1.42,4277.51,278,-19.48,-1.88,1.48,10.66,1:56:24,34.205307N,-112.946640W,4402.60,26.89,15
12295452,1.53,4269.18,203,-19.53,0.22,-3.59,8.29,1:56:25,34.205395N,-112.946678W,4395.60,23.01,15
12296453,1.74,4262.77,184,-19.45,-0.39,2.27,9.24,1:56:26,34.205460N,-112.946701W,4388.40,15.61,15
12297454,1.77,4247.42,191,-19.50,-6.30,-1.25,9.66,1:56:27,34.205509N,-112.946716W,4381.20,12.53,15
12298455,1.80,4247.68,94,-19.46,-0.51,0.87,9.87,1:56:28,34.205566N,-112.946678W,4374.10,16.18,15
12299456,1.79,4236.18,218,-19.50,-3.77,1.49,11.01,1:56:29,34.205631N,-112.946640W,4367.20,21.25,15
12300457,1.86,4218.08,231,-19.47,-1.45,1.37,10.37,1:56:30,34.205727N,-112.946571W,4359.80,29.82,15
12301458,2.07,4217.44,272,-19.45,0.38,-0.47,11.09,1:56:31,34.205868N,-112.946510W,4351.70,32.87,15
12302459,2.04,4214.76,287,-19.47,-0.97,1.85,10.80,1:56:32,34.205994N,-112.946480W,4344.40,32.29,15
12303460,2.06,4213.74,286,-19.50,0.75,-2.04,10.25,1:56:33,34.206131N,-112.946495W,4337.60,32.03,15
12304461,2.15,4208.52,257,-19.45,-0.42,-0.56,9.72,1:56:34,34.206249N,-112.946518W,4330.30,26.57,15
12305462,2.20,4203.31,258,-19.47,0.20,0.03,10.21,1:56:35,34.206326N,-112.946548W,4323.60,22.80,15
12306463,2.27,4183.74,278,-19.50,-1.44,1.03,9.05,1:56:36,34.206402N,-112.946587W,4316.80,21.56,15
12307464,2.31,4190.60,273,-19.46,1.56,-2.57,9.94,1:56:37,34.206478N,-112.946609W,4310.40,18.57,15
12308465,2.35,4184.50,57,-19.45,-2.06,1.54,9.40,1:56:38,34.206547N,-112.946640W,4304.10,17.44,15
12309466,2.41,4178.54,213,-19.43,-0.60,-1.96,10.70,1:56:39,34.206615N,-112.946663W,4297.70,16.67,15
12310467,2.48,4180.82,215,-19.43,-2.35,1.96,9.17,1:56:40,34.206676N,-112.946663W,4290.90,14.89,15
12311468,2.51,4180.31,162,-19.49,-1.52,-1.21,9.41,1:56:41,34.206734N,-112.946640W,4283.70,15.54,15
12312469,2.53,4169.91,157,-19.48,2.17,-2.55,10.78,1:56:42,34.206795N,-112.946587W,4276.60,20.45,15
