time_since_start,bme_temp,bme_alt,uv,ism_temp,acc_x,acc_y,acc_z,gps_time,latitude,longitude,gps_alt,speed,sats
18019170,33.73,1061.05,81,22.00,-8.49,4.11,2.81,3:31:48,34.219364N,-112.948669W,1116.60,0.02,15
18020171,33.75,1061.05,81,21.99,-8.48,4.13,2.79,3:31:49,34.219364N,-112.948669W,1116.60,0.01,15
18021172,33.77,1060.96,79,21.98,-8.49,4.14,2.80,3:31:50,34.219364N,-112.948669W,1116.60,0.02,15
18022173,33.78,1060.87,84,22.00,-8.52,4.14,2.79,3:31:51,34.219364N,-112.948669W,1116.60,0.01,15
18023174,33.79,1060.87,75,21.98,-8.52,4.12,2.80,3:31:52,34.219364N,-112.948669W,1116.60,0.01,15
18024175,33.79,1060.87,81,21.99,-8.54,4.09,2.79,3:31:53,34.219364N,-112.948669W,1116.60,0.01,15
18025176,33.80,1060.96,79,21.98,-8.53,4.11,2.79,3:31:54,34.219364N,-112.948669W,1116.60,0.00,15
18026177,33.81,1060.87,78,22.01,-8.53,4.09,2.79,3:31:55,34.219364N,-112.948669W,1116.60,0.01,15
18027178,33.82,1061.05,77,22.02,-8.53,4.10,2.79,3:31:56,34.219364N,-112.948669W,1116.60,0.01,15
18028179,33.84,1060.96,75,22.00,-8.55,4.16,2.80,3:31:57,34.219364N,-112.948669W,1116.60,0.02,15
18029180,33.85,1060.96,79,22.00,-8.54,4.17,2.79,3:31:58,34.219364N,-112.948669W,1116.60,0.01,15
18030181,33.85,1060.96,82,22.01,-8.59,4.02,2.82,3:31:59,34.219364N,-112.948669W,1116.60,0.01,15
18031182,33.86,1061.05,79,22.04,-8.47,4.12,2.78,3:32:0,34.219364N,-112.948669W,1116.60,0.01,15
18032183,33.86,1061.05,72,22.04,-8.36,4.19,2.80,3:32:1,34.219364N,-112.948669W,1116.60,0.01,15
18033184,33.86,1061.05,78,22.01,-8.37,4.17,2.76,3:32:2,34.219364N,-112.948669W,1116.60,0.00,14
18034185,33.86,1061.14,68,22.01,-8.46,4.14,2.87,3:32:3,34.219364N,-112.948669W,1116.60,0.01,15
18035186,33.86,1061.14,73,22.02,-8.41,4.17,2.81,3:32:4,34.219364N,-112.948669W,1116.60,0.01,15
18036187,33.86,1061.14,72,22.00,-8.37,4.13,2.77,3:32:5,34.219364N,-112.948669W,1116.50,0.01,15
18037188,33.85,1060.96,72,22.04,-8.51,4.14,2.79,3:32:6,34.219364N,-112.948669W,1116.60,0.00,15
18038189,33.85,1060.96,62,22.00,-8.48,4.15,2.81,3:32:7,34.219364N,-112.948669W,1116.60,0.03,15
18039190,33.85,1060.96,91,22.02,-8.42,4.12,2.73,3:32:8,34.219364N,-112.948669W,1116.60,0.01,15
18040191,33.86,1060.96,75,22.05,-8.51,4.10,2.83,3:32:9,34.219364N,-112.948669W,1116.60,0.01,15
18041192,33.85,1060.96,88,22.04,-8.46,4.23,2.77,3:32:10,34.219364N,-112.948669W,1116.60,0.02,15
18042193,33.85,1061.14,70,22.04,-8.37,4.24,2.81,3:32:11,34.219364N,-112.948669W,1116.60,0.01,14
18043194,33.85,1061.24,77,22.04,-8.43,4.25,2.85,3:32:12,34.219364N,-112.948669W,1116.60,0.02,14
18044195,33.84,1061.24,81,22.00,-8.44,4.13,2.78,3:32:13,34.219364N,-112.948669W,1116.60,0.01,14
18045196,33.85,1061.24,78,22.04,-8.56,4.08,2.79,3:32:14,34.219364N,-112.948669W,1116.50,0.01,14
18046197,33.86,1061.33,75,22.04,-8.53,4.15,2.79,3:32:15,34.219364N,-112.948669W,1116.50,0.01,15
18047198,33.85,1061.33,63,22.00,-8.47,4.06,2.85,3:32:16,34.219364N,-112.948669W,1116.50,0.00,15
18048199,33.85,1061.33,70,22.03,-8.42,4.14,2.73,3:32:17,34.219364N,-112.948669W,1116.50,0.03,15
18049200,33.84,1061.33,74,22.04,-8.49,4.17,2.80,3:32:18,34.219364N,-112.948669W,1116.50,0.01,15
18050201,33.83,1061.33,77,22.05,-8.45,4.22,2.79,3:32:19,34.219364N,-112.948669W,1116.50,0.01,15
18051202,33.82,1061.24,78,22.06,-8.47,4.14,2.79,3:32:20,34.219364N,-112.948669W,1116.50,0.01,15
18052203,33.81,1061.24,77,22.04,-8.49,4.15,2.79,3:32:21,34.219364N,-112.948669W,1116.50,0.03,15
18053204,33.83,1061.24,78,22.00,-8.51,4.15,2.78,3:32:22,34.219364N,-112.948669W,1116.50,0.02,15
18054205,33.84,1061.24,79,22.05,-8.48,4.13,2.79,3:32:23,34.219364N,-112.948669W,1116.50,0.01,15
18055206,33.86,1061.24,73,22.07,-8.47,4.13,2.79,3:32:24,34.219364N,-112.948669W,1116.50,0.01,16
18056207,33.87,1061.33,72,22.05,-8.55,4.22,2.81,3:32:25,34.219364N,-112.948669W,1116.50,0.01,16
18057208,33.89,1061.42,75,22.06,-8.51,4.19,2.75,3:32:26,34.219364N,-112.948669W,1116.50,0.01,16
18058209,33.89,1061.33,72,22.07,-8.55,4.02,2.79,3:32:27,34.219364N,-112.948669W,1116.50,0.01,16
18059210,33.88,1061.24,73,22.07,-8.58,4.07,2.75,3:32:28,34.219364N,-112.948669W,1116.50,0.02,16
18060211,33.87,1061.14,73,22.04,-8.42,4.13,2.82,3:32:29,34.219364N,-112.948669W,1116.50,0.01,16
18061212,33.87,1061.05,72,22.04,-8.44,4.19,2.76,3:32:30,34.219364N,-112.948669W,1116.50,0.01,16
18062213,33.86,1061.05,72,22.07,-8.39,4.17,2.79,3:32:31,34.219364N,-112.948669W,1116.50,0.01,16
18063214,33.86,1061.05,72,22.05,-8.54,4.20,2.78,3:32:32,34.219364N,-112.948669W,1116.50,0.00,16
18064215,33.86,1061.24,70,22.05,-8.42,4.16,2.79,3:32:33,34.219364N,-112.948669W,1116.50,0.03,16
18065216,33.85,1061.14,72,22.04,-8.46,4.26,2.78,3:32:34,34.219364N,-112.948669W,1116.50,0.02,16
18066217,33.84,1061.05,72,22.03,-8.48,4.21,2.85,3:32:35,34.219364N,-112.948669W,1116.50,0.01,16
18067218,33.82,1061.14,72,22.07,-8.53,4.21,2.80,3:32:36,34.219364N,-112.948669W,1116.50,0.02,16
18068219,33.80,1061.24,75,22.04,-8.48,4.12,2.78,3:32:37,34.219364N,-112.948669W,1116.50,0.01,16
18069220,33.78,1061.14,74,22.05,-8.60,4.01,2.75,3:32:38,34.219364N,-112.948669W,1116.50,0.01,16
18070221,33.75,1061.24,62,22.07,-8.48,4.09,2.81,3:32:39,34.219364N,-112.948669W,1116.50,0.02,16
18071222,33.74,1061.05,53,22.04,-8.38,4.29,2.71,3:32:40,34.219364N,-112.948669W,1116.50,0.01,16
18072223,33.73,1060.96,72,22.09,-8.44,4.14,2.80,3:32:41,34.219364N,-112.948669W,1116.50,0.01,16
18073224,33.72,1060.96,78,22.07,-8.43,4.05,2.74,3:32:42,34.219364N,-112.948669W,1116.50,0.02,16
18074225,33.70,1060.96,73,22.07,-8.48,4.16,2.86,3:32:43,34.219364N,-112.948669W,1116.50,0.02,16
18075226,33.69,1060.87,72,22.07,-8.38,4.19,2.78,3:32:44,34.219364N,-112.948669W,1116.50,0.01,16
18076227,33.69,1060.87,72,22.11,-8.47,4.13,2.79,3:32:45,34.219364N,-112.948669W,1116.50,0.01,16
18077228,33.70,1060.87,72,22.09,-8.46,4.15,2.76,3:32:46,34.219364N,-112.948669W,1116.50,0.01,16
18078229,33.71,1060.87,59,22.05,-8.45,4.14,2.75,3:32:47,34.219364N,-112.948669W,1116.50,0.02,16
18079230,33.71,1060.87,63,22.11,-8.85,4.06,2.87,3:32:48,34.219364N,-112.948669W,1116.50,0.00,16
18080231,33.69,1061.14,50,22.06,-8.36,4.30,2.77,3:32:49,34.219364N,-112.948669W,1116.50,0.02,16
18081232,33.67,1061.33,60,22.07,-8.40,4.09,2.81,3:32:50,34.219364N,-112.948669W,1116.50,0.01,16
18082233,33.64,1061.14,55,22.11,-8.75,4.11,2.90,3:32:51,34.219364N,-112.948669W,1116.50,0.01,16
18083234,33.61,1061.14,58,22.04,-8.66,4.19,2.86,3:32:52,34.219364N,-112.948669W,1116.50,0.02,16
18084235,33.57,1061.05,70,22.07,-8.43,4.14,2.79,3:32:53,34.219364N,-112.948669W,1116.50,0.01,16
18085236,33.52,1061.05,69,22.08,-8.40,4.21,2.75,3:32:54,34.219364N,-112.948669W,1116.50,0.03,15
18086237,33.48,1060.96,69,22.09,-8.66,4.19,2.77,3:32:55,34.219364N,-112.948669W,1116.50,0.01,15
18087238,33.47,1060.96,73,22.07,-8.31,4.24,2.78,3:32:56,34.219364N,-112.948669W,1116.50,0.02,15
18088239,33.46,1060.87,70,22.06,-8.47,4.14,2.87,3:32:57,34.219364N,-112.948669W,1116.50,0.00,15
18089240,33.46,1060.78,54,22.07,-8.35,4.29,2.81,3:32:58,34.219364N,-112.948669W,1116.50,0.01,15
18090241,33.45,1060.87,74,22.06,-8.54,3.99,2.81,3:32:59,34.219364N,-112.948669W,1116.50,0.02,15
18091242,33.44,1060.96,74,22.06,-8.52,4.07,2.79,3:33:0,34.219364N,-112.948669W,1116.50,0.02,15
18092243,33.42,1060.96,67,22.11,-8.53,4.09,2.84,3:33:1,34.219364N,-112.948669W,1116.50,0.01,15
18093244,33.39,1061.14,72,22.10,-8.41,4.09,2.81,3:33:2,34.219364N,-112.948669W,1116.50,0.02,15
18094245,33.37,1061.14,73,22.08,-8.32,4.10,2.77,3:33:3,34.219364N,-112.948669W,1116.50,0.01,15
18095246,33.35,1061.05,77,22.07,-8.46,4.16,2.73,3:33:4,34.219364N,-112.948669W,1116.50,0.02,15
18096247,33.33,1060.96,73,22.13,-8.58,4.18,2.84,3:33:5,34.219364N,-112.948669W,1116.50,0.01,15
18097248,33.32,1060.87,73,22.12,-8.38,4.25,2.80,3:33:6,34.219364N,-112.948669W,1116.50,0.02,15
18098249,33.31,1061.14,58,22.09,-8.33,4.38,2.74,3:33:7,34.219364N,-112.948669W,1116.50,0.02,15
18099250,33.32,1060.96,72,22.09,-8.48,4.20,2.76,3:33:8,34.219364N,-112.948669W,1116.50,0.02,15
18100251,33.30,1060.87,72,22.12,-8.38,4.04,2.82,3:33:9,34.219364N,-112.948669W,1116.50,0.02,15
18101252,33.28,1060.87,72,22.09,-8.51,4.10,2.80,3:33:10,34.219364N,-112.948669W,1116.50,0.01,15
18102253,33.28,1061.05,73,22.10,-8.44,4.15,2.78,3:33:11,34.219364N,-112.948669W,1116.50,0.01,15
18103254,33.29,1061.05,74,22.12,-8.61,4.20,2.79,3:33:12,34.219364N,-112.948669W,1116.50,0.02,15
18104255,33.29,1061.24,72,22.09,-8.35,4.17,2.76,3:33:13,34.219364N,-112.948669W,1116.50,0.01,15
18105256,33.27,1061.05,74,22.11,-8.49,4.19,2.80,3:33:14,34.219364N,-112.948669W,1116.50,0.01,15
18106257,33.27,1060.87,88,22.09,-8.41,4.21,2.76,3:33:15,34.219364N,-112.948669W,1116.50,0.02,15
18107258,33.27,1060.78,73,22.07,-8.81,4.06,2.76,3:33:16,34.219364N,-112.948669W,1116.50,0.01,15
18108259,33.26,1060.68,75,22.12,-8.41,4.25,2.76,3:33:17,34.219364N,-112.948669W,1116.50,0.01,15
18109260,33.24,1060.50,70,22.07,-8.51,4.21,2.83,3:33:18,34.219364N,-112.948669W,1116.50,0.01,15
18110261,33.22,1060.59,72,22.10,-8.30,4.31,2.79,3:33:19,34.219364N,-112.948669W,1116.50,0.02,15
18111262,33.21,1060.68,60,22.12,-8.54,4.19,2.80,3:33:20,34.219364N,-112.948669W,1116.50,0.02,15
18112263,33.19,1060.78,60,22.13,-8.43,4.11,2.82,3:33:21,34.219364N,-112.948669W,1116.50,0.01,15
18113264,33.19,1060.68,72,22.13,-8.58,3.98,2.77,3:33:22,34.219364N,-112.948669W,1116.50,0.01,15
18114265,33.18,1060.50,73,22.15,-8.74,4.13,2.81,3:33:23,34.219364N,-112.948669W,1116.50,0.02,15
18115266,33.18,1060.68,74,22.12,-8.56,4.20,2.82,3:33:24,34.219364N,-112.948669W,1116.50,0.02,15
18116267,33.17,1060.59,73,22.15,-9.79,4.12,2.81,3:33:25,34.219364N,-112.948669W,1116.50,0.02,15
18117268,33.17,1060.68,78,22.10,-8.51,4.08,2.75,3:33:26,34.219364N,-112.948669W,1116.50,0.00,15
18118269,33.17,1060.78,73,22.13,-8.48,4.13,2.87,3:33:27,34.219364N,-112.948669W,1116.50,0.01,15
18119270,33.16,1060.78,79,22.12,-8.45,4.28,2.79,3:33:28,34.219364N,-112.948669W,1116.50,0.01,15
18120271,33.14,1060.68,73,22.11,-8.47,4.16,2.79,3:33:29,34.219364N,-112.948669W,1116.50,0.02,15
18121272,33.12,1060.78,73,22.12,-8.58,4.04,2.79,3:33:30,34.219364N,-112.948669W,1116.50,0.00,15
18122273,33.12,1060.87,73,22.13,-8.48,4.16,2.77,3:33:31,34.219364N,-112.948669W,1116.50,0.02,15
18123274,33.11,1060.78,73,22.11,-8.44,4.16,2.78,3:33:32,34.219364N,-112.948669W,1116.50,0.01,15
18124275,33.12,1060.68,75,22.16,-8.59,4.23,2.79,3:33:33,34.219364N,-112.948669W,1116.50,0.02,15
18125276,33.11,1060.78,73,22.13,-8.54,4.25,2.77,3:33:34,34.219364N,-112.948669W,1116.50,0.01,15
18126277,33.11,1060.78,73,22.12,-8.48,4.18,2.82,3:33:35,34.219364N,-112.948669W,1116.40,0.00,15
18127278,33.08,1060.68,73,22.12,-8.49,4.10,2.75,3:33:36,34.219364N,-112.948669W,1116.40,0.02,15
18128279,33.07,1060.78,73,22.12,-8.47,4.14,2.79,3:33:37,34.219364N,-112.948669W,1116.40,0.01,15
18129280,33.05,1060.96,74,22.12,-8.47,4.18,2.79,3:33:38,34.219364N,-112.948669W,1116.40,0.00,15
18130281,33.05,1060.96,74,22.14,-8.49,4.18,2.81,3:33:39,34.219364N,-112.948669W,1116.40,0.01,15
18131282,33.03,1060.87,81,22.16,-8.41,4.19,2.76,3:33:40,34.219364N,-112.948669W,1116.40,0.01,15
18132283,33.01,1060.87,70,22.14,-8.61,4.24,2.83,3:33:41,34.219364N,-112.948669W,1116.40,0.01,15
18133284,33.01,1061.05,60,22.12,-8.48,4.16,2.74,3:33:42,34.219364N,-112.948669W,1116.40,0.02,15
18134285,33.00,1061.14,72,22.13,-8.36,4.23,2.78,3:33:43,34.219364N,-112.948669W,1116.40,0.01,15
18135286,32.98,1061.05,73,22.14,-8.42,4.18,2.81,3:33:44,34.219364N,-112.948669W,1116.40,0.02,15
18136287,32.95,1060.96,74,22.14,-8.64,3.93,2.79,3:33:45,34.219364N,-112.948669W,1116.40,0.00,15
18137288,32.94,1060.96,72,22.14,-8.62,4.06,2.79,3:33:46,34.219364N,-112.948669W,1116.40,0.01,15
18138289,32.92,1060.96,73,22.15,-8.46,4.15,2.83,3:33:47,34.219364N,-112.948669W,1116.40,0.02,15
18139290,32.90,1060.68,74,22.16,-8.60,3.99,2.79,3:33:48,34.219364N,-112.948669W,1116.40,0.02,15
18140291,32.88,1060.59,70,22.15,-8.36,4.21,2.75,3:33:49,34.219364N,-112.948669W,1116.40,0.01,15
18141292,32.86,1060.41,75,22.12,-8.49,4.26,2.79,3:33:50,34.219364N,-112.948669W,1116.40,0.02,15
18142293,32.85,1060.41,74,22.16,-8.53,4.20,2.80,3:33:51,34.219364N,-112.948669W,1116.40,0.00,15
18143294,32.84,1060.59,73,22.12,-8.59,4.14,2.78,3:33:52,34.219364N,-112.948669W,1116.40,0.02,15
18144295,32.83,1060.50,73,22.13,-8.53,4.04,2.80,3:33:53,34.219364N,-112.948669W,1116.40,0.01,15
18145296,32.81,1060.41,75,22.13,-8.47,4.11,2.77,3:33:54,34.219364N,-112.948669W,1116.40,0.02,15
18146297,32.81,1060.59,73,22.15,-8.47,4.11,2.82,3:33:55,34.219364N,-112.948669W,1116.40,0.00,15
18147298,32.81,1060.59,73,22.12,-8.48,4.17,2.81,3:33:56,34.219364N,-112.948669W,1116.40,0.02,15
18148299,32.81,1060.50,74,22.16,-8.51,4.13,2.81,3:33:57,34.219364N,-112.948669W,1116.40,0.00,15
18149300,32.82,1060.41,74,22.15,-8.48,4.13,2.81,3:33:58,34.219364N,-112.948669W,1116.40,0.01,15
18150301,32.83,1060.22,74,22.12,-8.41,4.13,2.79,3:33:59,34.219364N,-112.948669W,1116.40,0.03,15
18151302,32.85,1060.22,74,22.16,-8.51,4.14,2.79,3:34:0,34.219364N,-112.948669W,1116.40,0.02,15
18152303,32.86,1060.22,73,22.10,-8.45,4.12,2.79,3:34:1,34.219364N,-112.948669W,1116.40,0.02,15
18153304,32.87,1060.31,75,22.12,-8.48,4.14,2.79,3:34:2,34.219364N,-112.948669W,1116.40,0.01,15
18154305,32.89,1060.50,74,22.12,-8.54,4.15,2.83,3:34:3,34.219364N,-112.948669W,1116.40,0.02,15
18155306,32.91,1060.41,74,22.16,-8.54,4.09,2.78,3:34:4,34.219364N,-112.948669W,1116.40,0.01,15
18156307,32.89,1060.59,75,22.15,-8.52,4.08,2.79,3:34:5,34.219364N,-112.948669W,1116.40,0.01,15
18157308,32.88,1060.96,60,22.16,-8.42,4.28,2.68,3:34:6,34.219364N,-112.948669W,1116.40,0.01,15
18158309,32.87,1061.05,72,22.12,-8.39,4.13,2.82,3:34:7,34.219364N,-112.948669W,1116.50,0.02,15
18159310,32.85,1061.14,73,22.16,-8.57,4.15,2.91,3:34:8,34.219364N,-112.948669W,1116.50,0.02,15
18160311,32.81,1061.24,63,22.13,-8.60,4.13,2.78,3:34:9,34.219364N,-112.948669W,1116.50,0.02,15
18161312,32.79,1061.33,70,22.16,-8.42,4.03,2.75,3:34:10,34.219364N,-112.948669W,1116.50,0.00,14
18162313,32.76,1061.33,74,22.13,-8.79,3.98,2.76,3:34:11,34.219364N,-112.948669W,1116.50,0.02,14
18163314,32.73,1060.96,69,22.13,-8.36,4.32,2.85,3:34:12,34.219364N,-112.948669W,1116.50,0.01,15
18164315,32.70,1060.96,75,22.16,-8.36,4.35,2.76,3:34:13,34.219364N,-112.948669W,1116.50,0.02,15
18165316,32.67,1061.05,74,22.16,-8.45,4.23,2.84,3:34:14,34.219364N,-112.948669W,1116.40,0.01,15
18166317,32.64,1060.87,74,22.17,-8.57,4.08,2.80,3:34:15,34.219364N,-112.948669W,1116.40,0.01,15
18167318,32.63,1061.05,73,22.17,-8.57,4.04,2.80,3:34:16,34.219364N,-112.948669W,1116.40,0.02,15
18168319,32.62,1060.87,75,22.14,-8.47,4.15,2.80,3:34:17,34.219364N,-112.948669W,1116.40,0.01,15
18169320,32.62,1060.68,74,22.17,-8.51,4.19,2.81,3:34:18,34.219364N,-112.948669W,1116.40,0.01,15
18170321,32.62,1060.68,73,22.14,-8.52,4.09,2.85,3:34:19,34.219364N,-112.948669W,1116.40,0.01,15
18171322,32.61,1060.68,78,22.15,-8.60,4.04,2.80,3:34:20,34.219364N,-112.948669W,1116.40,0.01,15
18172323,32.60,1060.59,73,22.16,-8.54,3.94,2.78,3:34:21,34.219364N,-112.948669W,1116.50,0.02,15
18173324,32.59,1060.50,74,22.16,-8.53,4.07,2.81,3:34:22,34.219364N,-112.948669W,1116.50,0.00,15
18174325,32.58,1060.31,75,22.18,-8.44,4.12,2.79,3:34:23,34.219364N,-112.948669W,1116.50,0.02,15
18175326,32.58,1060.41,75,22.16,-8.52,4.14,2.80,3:34:24,34.219364N,-112.948669W,1116.50,0.01,15
18176327,32.60,1060.31,74,22.17,-8.45,4.17,2.79,3:34:25,34.219364N,-112.948669W,1116.50,0.01,15
18177328,32.61,1060.50,75,22.20,-8.51,4.15,2.82,3:34:26,34.219364N,-112.948669W,1116.50,0.01,15
18178329,32.63,1060.50,77,22.17,-8.59,4.20,2.84,3:34:27,34.219364N,-112.948669W,1116.50,0.01,15
18179330,32.63,1060.41,79,22.17,-8.34,4.17,2.79,3:34:28,34.219364N,-112.948669W,1116.50,0.01,15
18180331,32.62,1060.31,75,22.15,-8.56,4.08,2.77,3:34:29,34.219364N,-112.948669W,1116.50,0.00,15
18181332,32.61,1060.41,74,22.15,-8.56,4.09,2.77,3:34:30,34.219364N,-112.948669W,1116.50,0.02,15
18182333,32.59,1060.31,74,22.16,-8.55,4.04,2.80,3:34:31,34.219364N,-112.948669W,1116.50,0.01,15
18183334,32.58,1060.31,74,22.16,-8.52,4.09,2.81,3:34:32,34.219364N,-112.948669W,1116.50,0.00,15
18184335,32.59,1060.22,77,22.18,-8.48,4.13,2.79,3:34:33,34.219364N,-112.948669W,1116.50,0.00,15
18185336,32.59,1060.13,74,22.16,-8.46,4.17,2.81,3:34:34,34.219364N,-112.948669W,1116.50,0.02,15
18186337,32.60,1060.31,75,22.17,-8.45,4.18,2.81,3:34:35,34.219364N,-112.948669W,1116.50,0.00,15
18187338,32.63,1060.31,77,22.17,-8.49,4.14,2.79,3:34:36,34.219364N,-112.948669W,1116.50,0.02,15
18188339,32.65,1060.22,77,22.14,-8.40,4.18,2.80,3:34:37,34.219364N,-112.948669W,1116.50,0.01,15
18189340,32.66,1060.22,75,22.18,-8.50,4.16,2.80,3:34:38,34.219364N,-112.948669W,1116.50,0.01,15
18190341,32.67,1060.13,75,22.20,-8.50,4.13,2.81,3:34:39,34.219364N,-112.948669W,1116.50,0.02,15
18191342,32.69,1060.41,77,22.17,-8.46,4.16,2.78,3:34:40,34.219364N,-112.948669W,1116.50,0.00,15
18192343,32.70,1060.59,74,22.18,-8.52,4.16,2.78,3:34:41,34.219364N,-112.948669W,1116.50,0.02,15
18193344,32.70,1060.50,74,22.20,-8.53,4.08,2.82,3:34:42,34.219364N,-112.948669W,1116.50,0.02,15
18194345,32.69,1060.50,77,22.19,-8.51,4.11,2.77,3:34:43,34.219364N,-112.948669W,1116.50,0.01,15
18195346,32.69,1060.50,75,22.16,-8.47,4.17,2.80,3:34:44,34.219364N,-112.948669W,1116.50,0.00,15
18196347,32.70,1060.59,75,22.16,-8.49,4.10,2.80,3:34:45,34.219364N,-112.948669W,1116.50,0.00,15
18197348,32.71,1060.59,68,22.16,-8.48,4.20,2.79,3:34:46,34.219364N,-112.948669W,1116.50,0.02,15
18198349,32.72,1060.50,68,22.17,-8.47,4.18,2.79,3:34:47,34.219364N,-112.948669W,1116.50,0.01,15
18199350,32.72,1060.50,78,22.20,-8.42,4.23,2.78,3:34:48,34.219364N,-112.948669W,1116.60,0.01,15
18200351,32.73,1060.59,75,22.15,-8.44,4.22,2.83,3:34:49,34.219364N,-112.948669W,1116.50,0.00,15
18201352,32.72,1060.50,78,22.18,-8.49,4.16,2.78,3:34:50,34.219364N,-112.948669W,1116.60,0.01,15
18202353,32.71,1060.50,77,22.21,-8.42,4.16,2.79,3:34:51,34.219364N,-112.948669W,1116.60,0.01,15
18203354,32.73,1060.68,59,22.16,-8.50,4.19,2.75,3:34:52,34.219364N,-112.948669W,1116.60,0.01,15
18204355,32.74,1060.78,64,22.16,-8.25,4.48,2.85,3:34:53,34.219364N,-112.948669W,1116.60,0.03,15
18205356,32.73,1060.87,59,22.18,-8.43,4.32,2.77,3:34:54,34.219364N,-112.948669W,1116.60,0.02,15
18206357,32.71,1060.96,60,22.19,-8.38,4.15,2.81,3:34:55,34.219364N,-112.948669W,1116.60,0.01,15
18207358,32.67,1060.87,63,22.19,-8.28,4.22,2.82,3:34:56,34.219364N,-112.948669W,1116.60,0.01,15
18208359,32.63,1061.05,59,22.15,-8.47,4.32,2.79,3:34:57,34.219364N,-112.948669W,1116.60,0.01,15
18209360,32.59,1061.24,73,22.19,-8.47,4.35,2.81,3:34:58,34.219364N,-112.948669W,1116.60,0.02,15
18210361,32.55,1061.14,75,22.20,-8.45,4.15,2.79,3:34:59,34.219364N,-112.948669W,1116.60,0.01,15
18211362,32.52,1061.05,77,22.21,-8.51,4.17,2.81,3:35:0,34.219364N,-112.948669W,1116.60,0.00,15
18212363,32.50,1061.05,67,22.17,-8.49,4.07,2.76,3:35:1,34.219364N,-112.948669W,1116.60,0.02,15
18213364,32.47,1061.05,68,22.21,-8.48,4.15,2.75,3:35:2,34.219364N,-112.948669W,1116.60,0.00,15
18214365,32.44,1061.05,77,22.19,-8.48,4.21,2.80,3:35:3,34.219364N,-112.948669W,1116.60,0.01,15
18215366,32.43,1061.14,78,22.23,-8.52,4.17,2.80,3:35:4,34.219364N,-112.948669W,1116.60,0.03,15
18216367,32.42,1060.96,78,22.20,-8.46,4.10,2.79,3:35:5,34.219364N,-112.948669W,1116.60,0.02,15
18217368,32.41,1060.87,77,22.18,-8.48,4.11,2.78,3:35:6,34.219364N,-112.948669W,1116.60,0.02,15
18218369,32.40,1060.96,78,22.20,-8.47,4.18,2.79,3:35:7,34.219364N,-112.948669W,1116.60,0.00,15
18219370,32.39,1060.78,75,22.18,-8.45,4.19,2.82,3:35:8,34.219360N,-112.948669W,1116.60,0.01,15
18220371,32.38,1060.59,78,22.18,-8.45,4.17,2.81,3:35:9,34.219360N,-112.948669W,1116.60,0.02,15
18221372,32.38,1060.68,77,22.25,-8.45,4.13,2.78,3:35:10,34.219360N,-112.948669W,1116.70,0.02,15
18222373,32.38,1060.59,78,22.20,-8.48,4.15,2.79,3:35:11,34.219360N,-112.948669W,1116.60,0.00,15
18223374,32.39,1060.68,78,22.20,-8.52,4.07,2.77,3:35:12,34.219360N,-112.948669W,1116.70,0.01,15
18224375,32.40,1060.50,78,22.19,-8.42,4.16,2.81,3:35:13,34.219360N,-112.948669W,1116.70,0.01,15
18225376,32.40,1060.50,74,22.18,-8.53,4.18,2.79,3:35:14,34.219360N,-112.948669W,1116.70,0.01,15
18226377,32.39,1060.78,70,22.19,-8.37,4.19,2.79,3:35:15,34.219360N,-112.948669W,1116.70,0.01,15
18227378,32.36,1060.87,64,22.21,-8.46,4.29,2.79,3:35:16,34.219360N,-112.948669W,1116.70,0.01,15
18228379,32.33,1060.78,68,22.19,-8.28,4.35,2.80,3:35:17,34.219360N,-112.948669W,1116.70,0.01,15
18229380,32.31,1060.78,69,22.21,-8.37,4.24,2.78,3:35:18,34.219360N,-112.948669W,1116.70,0.01,15
18230381,32.27,1060.96,75,22.18,-8.49,4.13,2.75,3:35:19,34.219360N,-112.948669W,1116.70,0.00,15
18231382,32.23,1060.96,78,22.19,-8.42,4.09,2.76,3:35:20,34.219360N,-112.948669W,1116.70,0.01,15
18232383,32.20,1060.78,77,22.21,-8.44,4.12,2.82,3:35:21,34.219360N,-112.948669W,1116.70,0.01,15
18233384,32.20,1060.87,78,22.20,-8.53,4.15,2.79,3:35:22,34.219360N,-112.948669W,1116.70,0.01,15
18234385,32.19,1060.78,74,22.18,-8.46,4.20,2.81,3:35:23,34.219360N,-112.948669W,1116.70,0.00,15
18235386,32.19,1060.78,77,22.20,-8.48,4.18,2.79,3:35:24,34.219360N,-112.948669W,1116.70,0.01,15
18236387,32.19,1060.59,77,22.23,-8.52,4.08,2.82,3:35:25,34.219360N,-112.948669W,1116.70,0.01,15
18237388,32.19,1060.59,75,22.20,-8.53,4.10,2.78,3:35:26,34.219360N,-112.948669W,1116.70,0.01,15
18238389,32.19,1060.50,74,22.19,-8.51,4.05,2.79,3:35:27,34.219360N,-112.948669W,1116.70,0.01,15
18239390,32.20,1060.59,78,22.20,-8.47,4.13,2.79,3:35:28,34.219360N,-112.948669W,1116.60,0.01,15
18240391,32.20,1060.41,77,22.18,-8.59,4.09,2.80,3:35:29,34.219360N,-112.948669W,1116.60,0.01,15
18241392,32.20,1060.41,78,22.25,-8.47,4.14,2.80,3:35:30,34.219360N,-112.948669W,1116.60,0.01,15
18242393,32.20,1060.59,78,22.23,-8.40,4.22,2.77,3:35:31,34.219360N,-112.948669W,1116.60,0.01,15
18243394,32.20,1060.59,77,22.18,-8.46,4.17,2.81,3:35:32,34.219360N,-112.948669W,1116.60,0.01,15
18244395,32.20,1060.41,73,22.20,-8.44,4.24,2.79,3:35:33,34.219360N,-112.948669W,1116.60,0.00,15
18245396,32.21,1060.50,78,22.22,-8.45,4.12,2.80,3:35:34,34.219360N,-112.948669W,1116.60,0.01,15
18246397,32.20,1060.50,73,22.21,-8.40,4.20,2.81,3:35:35,34.219360N,-112.948669W,1116.60,0.02,15
18247398,32.21,1060.68,59,22.19,-8.40,4.27,2.81,3:35:36,34.219360N,-112.948669W,1116.60,0.01,15
18248399,32.21,1060.78,62,22.23,-8.62,4.14,2.81,3:35:37,34.219360N,-112.948669W,1116.60,0.01,15
18249400,32.21,1060.87,62,22.26,-8.37,4.21,2.83,3:35:38,34.219360N,-112.948669W,1116.60,0.01,15
18250401,32.20,1060.68,67,22.22,-8.27,4.29,2.79,3:35:39,34.219360N,-112.948669W,1116.60,0.00,15
18251402,32.19,1060.59,78,22.22,-8.36,4.11,2.77,3:35:40,34.219360N,-112.948669W,1116.60,0.01,15
18252403,32.19,1060.68,78,22.24,-8.43,4.13,2.78,3:35:41,34.219360N,-112.948669W,1116.60,0.01,15
18253404,32.18,1060.68,70,22.21,-8.50,4.20,2.79,3:35:42,34.219360N,-112.948669W,1116.60,0.00,15
18254405,32.18,1060.78,74,22.24,-8.37,4.25,2.79,3:35:43,34.219360N,-112.948669W,1116.60,0.01,16
18255406,32.19,1060.78,77,22.25,-8.34,4.31,2.79,3:35:44,34.219360N,-112.948669W,1116.60,0.01,16
18256407,32.20,1060.59,75,22.21,-8.47,4.23,2.80,3:35:45,34.219360N,-112.948669W,1116.60,0.02,16
18257408,32.21,1060.59,74,22.22,-8.45,4.16,2.75,3:35:46,34.219360N,-112.948669W,1116.60,0.02,16
18258409,32.20,1060.50,68,22.20,-8.55,4.22,2.81,3:35:47,34.219360N,-112.948669W,1116.60,0.01,16
18259410,32.21,1060.59,65,22.18,-8.35,4.21,2.80,3:35:48,34.219360N,-112.948669W,1116.60,0.02,16
18260411,32.21,1060.78,62,22.27,-8.65,4.18,2.74,3:35:49,34.219360N,-112.948669W,1116.60,0.01,16
18261412,32.21,1060.68,67,22.24,-8.59,4.05,2.79,3:35:50,34.219360N,-112.948669W,1116.60,0.03,16
18262413,32.21,1060.68,77,22.24,-8.52,4.11,2.80,3:35:51,34.219360N,-112.948669W,1116.60,0.03,16
18263414,32.21,1060.59,77,22.18,-8.63,3.96,2.84,3:35:52,34.219360N,-112.948669W,1116.60,0.03,16
18264415,32.20,1060.59,78,22.21,-8.51,4.04,2.76,3:35:53,34.219360N,-112.948669W,1116.60,0.02,15
18265416,32.21,1060.50,77,22.20,-8.52,4.13,2.79,3:35:54,34.219360N,-112.948669W,1116.70,0.02,15
18266417,32.21,1060.41,74,22.22,-8.48,4.20,2.80,3:35:55,34.219360N,-112.948669W,1116.70,0.01,15
18267418,32.22,1060.31,77,22.23,-8.47,4.19,2.81,3:35:56,34.219360N,-112.948669W,1116.70,0.02,15
18268419,32.23,1060.31,78,22.32,-8.47,4.15,2.78,3:35:57,34.219360N,-112.948669W,1116.70,0.01,15
18269420,32.23,1060.13,78,22.25,-8.52,4.11,2.79,3:35:58,34.219360N,-112.948669W,1116.70,0.01,15
18270421,32.24,1060.04,75,22.22,-8.48,4.16,2.79,3:35:59,34.219360N,-112.948669W,1116.70,0.00,15
18271422,32.26,1059.94,67,22.25,-8.43,4.18,2.78,3:36:0,34.219360N,-112.948669W,1116.70,0.02,15
18272423,32.26,1060.22,69,22.24,-8.46,4.17,2.80,3:36:1,34.219360N,-112.948669W,1116.70,0.02,15
18273424,32.25,1060.04,77,22.23,-8.44,4.18,2.77,3:36:2,34.219360N,-112.948669W,1116.70,0.01,15
18274425,32.23,1060.04,67,22.25,-8.48,4.14,2.79,3:36:3,34.219360N,-112.948669W,1116.70,0.01,15
18275426,32.23,1060.13,67,22.25,-8.56,4.13,2.75,3:36:4,34.219360N,-112.948669W,1116.70,0.00,15
18276427,32.22,1060.22,60,22.29,-8.49,4.23,2.79,3:36:5,34.219360N,-112.948669W,1116.70,0.01,15
18277428,32.22,1060.31,68,22.25,-8.40,4.22,2.78,3:36:6,34.219360N,-112.948669W,1116.70,0.03,15
18278429,32.21,1060.41,67,22.28,-8.33,4.16,2.80,3:36:7,34.219360N,-112.948669W,1116.70,0.00,15
18279430,32.18,1060.50,75,22.23,-8.53,4.13,2.78,3:36:8,34.219360N,-112.948669W,1116.70,0.01,15
18280431,32.16,1060.41,69,22.30,-8.52,4.13,2.79,3:36:9,34.219360N,-112.948669W,1116.70,0.03,15
18281432,32.17,1060.41,77,22.22,-8.52,4.03,2.82,3:36:10,34.219360N,-112.948669W,1116.70,0.01,15
18282433,32.17,1060.50,77,22.21,-8.50,4.11,2.79,3:36:11,34.219360N,-112.948669W,1116.70,0.03,15
18283434,32.17,1060.41,77,22.25,-8.54,4.07,2.80,3:36:12,34.219360N,-112.948669W,1116.70,0.01,15
18284435,32.18,1060.31,77,22.25,-8.51,4.11,2.79,3:36:13,34.219360N,-112.948669W,1116.70,0.00,15
18285436,32.18,1060.41,78,22.21,-8.52,4.12,2.78,3:36:14,34.219360N,-112.948669W,1116.70,0.01,15
18286437,32.20,1060.22,77,22.23,-8.50,4.12,2.79,3:36:15,34.219360N,-112.948669W,1116.70,0.02,15
18287438,32.20,1060.13,77,22.29,-8.53,4.11,2.77,3:36:16,34.219360N,-112.948669W,1116.70,0.02,15
18288439,32.20,1060.04,77,22.25,-8.48,4.13,2.79,3:36:17,34.219360N,-112.948669W,1116.70,0.01,15
18289440,32.21,1059.94,77,22.24,-8.46,4.17,2.77,3:36:18,34.219360N,-112.948669W,1116.70,0.02,15
18290441,32.23,1060.04,77,22.21,-8.43,4.12,2.79,3:36:19,34.219360N,-112.948669W,1116.70,0.01,15
18291442,32.23,1060.04,77,22.22,-8.48,4.14,2.79,3:36:20,34.219360N,-112.948669W,1116.70,0.01,15
18292443,32.23,1060.22,78,22.30,-8.50,4.12,2.79,3:36:21,34.219360N,-112.948669W,1116.70,0.02,15
18293444,32.23,1060.13,77,22.23,-8.48,4.15,2.80,3:36:22,34.219360N,-112.948669W,1116.70,0.01,15
18294445,32.24,1060.04,74,22.29,-8.47,4.12,2.79,3:36:24,34.219360N,-112.948669W,1116.70,0.01,15
18295446,32.23,1060.04,75,22.29,-8.44,4.19,2.80,3:36:25,34.219360N,-112.948669W,1116.70,0.00,15
18296447,32.24,1060.04,72,22.28,-8.48,4.17,2.80,3:36:26,34.219360N,-112.948669W,1116.70,0.03,15
18297448,32.25,1060.04,74,22.25,-8.43,4.20,2.78,3:36:27,34.219360N,-112.948669W,1116.70,0.00,15
18298449,32.27,1059.94,74,22.29,-8.46,4.16,2.79,3:36:28,34.219360N,-112.948669W,1116.70,0.01,15
18299450,32.29,1060.04,75,22.28,-8.48,4.12,2.79,3:36:29,34.219360N,-112.948669W,1116.70,0.01,15
18300451,32.31,1059.94,75,22.31,-8.49,4.13,2.79,3:36:29,34.219360N,-112.948669W,1116.70,0.01,15
18301452,32.33,1059.85,75,22.23,-8.48,4.13,2.80,3:36:31,34.219360N,-112.948669W,1116.70,0.01,15
18302453,32.36,1059.76,77,22.27,-8.54,4.13,2.79,3:36:32,34.219360N,-112.948669W,1116.70,0.01,15
18303454,32.37,1059.85,74,22.29,-8.54,4.09,2.79,3:36:33,34.219360N,-112.948669W,1116.70,0.01,15
18304455,32.39,1059.85,74,22.28,-8.49,4.13,2.79,3:36:33,34.219360N,-112.948669W,1116.70,0.01,15
18305456,32.42,1059.94,74,22.26,-8.45,4.17,2.79,3:36:35,34.219360N,-112.948669W,1116.70,0.01,15
18306457,32.44,1059.94,73,22.28,-8.46,4.18,2.80,3:36:36,34.219360N,-112.948669W,1116.70,0.01,15
18307458,32.46,1060.04,74,22.30,-8.47,4.15,2.80,3:36:36,34.219360N,-112.948669W,1116.70,0.01,15
18308459,32.47,1060.04,74,22.33,-8.48,4.13,2.80,3:36:38,34.219360N,-112.948669W,1116.70,0.01,15
18309460,32.47,1059.85,75,22.25,-8.46,4.16,2.79,3:36:39,34.219360N,-112.948669W,1116.70,0.02,15
18310461,32.47,1059.94,77,22.29,-8.48,4.12,2.79,3:36:40,34.219360N,-112.948669W,1116.70,0.01,15
18311462,32.49,1060.04,75,22.27,-8.48,4.11,2.79,3:36:41,34.219360N,-112.948669W,1116.70,0.01,15
18312463,32.51,1060.13,73,22.24,-8.48,4.13,2.80,3:36:42,34.219360N,-112.948669W,1116.70,0.01,15
18313464,32.53,1060.22,75,22.26,-8.46,4.15,2.78,3:36:43,34.219360N,-112.948669W,1116.70,0.02,15
18314465,32.54,1060.13,77,22.26,-8.51,4.12,2.79,3:36:44,34.219360N,-112.948669W,1116.70,0.01,15
18315466,32.56,1060.13,77,22.28,-8.50,4.11,2.78,3:36:45,34.219360N,-112.948669W,1116.60,0.01,15
18316467,32.57,1060.04,75,22.28,-8.50,4.12,2.81,3:36:45,34.219360N,-112.948669W,1116.60,0.02,15
18317468,32.57,1059.94,75,22.30,-8.48,4.12,2.80,3:36:47,34.219360N,-112.948669W,1116.70,0.00,15
18318469,32.58,1059.94,75,22.26,-8.47,4.14,2.79,3:36:48,34.219360N,-112.948669W,1116.60,0.00,15
