time_since_start,bme_temp,bme_alt,uv,ism_temp,acc_x,acc_y,acc_z,gps_time,latitude,longitude,gps_alt,speed,sats
13514670,31.85,1055.98,0,-0.88,-8.49,4.21,2.79,2:16:44,34.219372N,-112.948669W,1115.20,0.02,14
13515671,31.87,1055.98,0,-0.79,-8.49,4.20,2.79,2:16:45,34.219372N,-112.948669W,1115.20,0.01,14
13516672,31.88,1055.88,0,-0.77,-8.44,4.20,2.79,2:16:46,34.219372N,-112.948662W,1115.20,0.02,14
13517673,31.89,1055.79,0,-0.77,-8.48,4.22,2.79,2:16:47,34.219372N,-112.948662W,1115.20,0.00,14
13518674,31.91,1055.88,0,-0.74,-8.48,4.20,2.79,2:16:48,34.219372N,-112.948662W,1115.20,0.03,14
13519675,31.93,1055.88,0,-0.74,-8.46,4.21,2.80,2:16:49,34.219372N,-112.948662W,1115.20,0.02,14
13520676,31.95,1055.88,0,-0.68,-8.41,4.26,2.80,2:16:50,34.219372N,-112.948662W,1115.20,0.01,14
13521677,31.96,1055.88,0,-0.70,-8.45,4.26,2.76,2:16:51,34.219372N,-112.948662W,1115.20,0.01,14
13522678,31.96,1055.88,0,-0.68,-8.45,4.26,2.79,2:16:52,34.219372N,-112.948662W,1115.20,0.02,14
13523679,31.96,1055.88,0,-0.68,-8.43,4.19,2.77,2:16:53,34.219372N,-112.948662W,1115.20,0.00,14
13524680,31.95,1055.88,0,-0.65,-8.49,4.15,2.80,2:16:54,34.219372N,-112.948662W,1115.20,0.01,14
13525681,31.94,1055.88,0,-0.64,-8.47,4.24,2.81,2:16:55,34.219372N,-112.948662W,1115.20,0.00,14
13526682,31.94,1055.88,0,-0.66,-8.41,4.30,2.80,2:16:56,34.219372N,-112.948662W,1115.20,0.02,14
13527683,31.95,1055.79,0,-0.60,-8.54,4.26,2.87,2:16:57,34.219372N,-112.948662W,1115.20,0.02,14
13528684,31.96,1055.79,0,-0.58,-8.37,4.28,2.78,2:16:58,34.219372N,-112.948662W,1115.20,0.01,14
13529685,31.97,1055.79,0,-0.58,-8.47,4.17,2.82,2:16:59,34.219372N,-112.948662W,1115.20,0.01,14
13530686,31.98,1055.79,0,-0.53,-8.48,4.16,2.78,2:17:0,34.219372N,-112.948662W,1115.20,0.01,14
13531687,31.98,1055.70,0,-0.56,-8.41,4.24,2.74,2:17:1,34.219372N,-112.948662W,1115.20,0.01,14
13532688,31.99,1055.79,0,-0.54,-8.39,4.33,2.79,2:17:2,34.219372N,-112.948662W,1115.20,0.01,14
13533689,31.99,1055.88,0,-0.53,-8.38,4.44,2.79,2:17:3,34.219372N,-112.948662W,1115.20,0.02,14
13534690,31.99,1055.88,0,-0.53,-8.26,4.40,2.81,2:17:4,34.219372N,-112.948662W,1115.20,0.00,14
13535691,31.99,1055.98,0,-0.53,-8.36,4.30,2.76,2:17:5,34.219372N,-112.948662W,1115.20,0.01,14
13536692,31.98,1055.98,0,-0.52,-8.26,4.25,2.79,2:17:6,34.219372N,-112.948662W,1115.20,0.00,14
13537693,31.97,1055.88,0,-0.48,-8.33,4.45,2.80,2:17:7,34.219372N,-112.948662W,1115.20,0.01,14
13538694,31.96,1055.88,0,-0.51,-8.26,4.47,2.80,2:17:8,34.219372N,-112.948662W,1115.20,0.02,14
13539695,31.96,1055.88,0,-0.47,-8.30,4.35,2.82,2:17:9,34.219372N,-112.948662W,1115.20,0.02,14
13540696,31.95,1055.88,0,-0.48,-8.51,4.15,2.77,2:17:10,34.219372N,-112.948662W,1115.20,0.01,14
13541697,31.96,1055.98,0,-0.43,-8.55,4.12,2.84,2:17:11,34.219372N,-112.948662W,1115.20,0.03,14
13542698,31.96,1055.98,0,-0.43,-8.49,4.22,2.81,2:17:12,34.219372N,-112.948662W,1115.20,0.01,14
13543699,31.95,1055.88,0,-0.42,-8.48,4.15,2.82,2:17:13,34.219372N,-112.948662W,1115.10,0.01,14
13544700,31.95,1055.98,0,-0.47,-8.52,4.19,2.77,2:17:14,34.219372N,-112.948662W,1115.10,0.02,14
13545701,31.95,1055.98,0,-0.39,-8.49,4.13,2.80,2:17:15,34.219372N,-112.948662W,1115.10,0.02,14
13546702,31.95,1055.98,0,-0.36,-8.38,4.27,2.82,2:17:16,34.219372N,-112.948662W,1115.10,0.01,14
13547703,31.96,1055.98,0,-0.32,-8.02,4.28,2.60,2:17:17,34.219372N,-112.948662W,1115.10,0.02,14
13548704,31.95,1055.98,0,-0.34,-8.46,4.46,2.84,2:17:18,34.219372N,-112.948662W,1115.10,0.02,14
13549705,31.93,1055.88,0,-0.30,-8.37,4.30,2.83,2:17:19,34.219372N,-112.948662W,1115.10,0.01,14
13550706,31.92,1056.07,0,-0.27,-8.36,4.28,2.87,2:17:20,34.219372N,-112.948662W,1115.10,0.00,14
13551707,31.91,1055.98,0,-0.28,-8.36,4.07,2.81,2:17:21,34.219372N,-112.948662W,1115.10,0.01,14
13552708,31.90,1055.98,0,-0.24,-8.56,4.02,2.86,2:17:22,34.219372N,-112.948662W,1115.10,0.01,14
13553709,31.89,1055.98,0,-0.21,-8.45,4.04,2.78,2:17:23,34.219372N,-112.948662W,1115.10,0.02,14
13554710,31.88,1055.98,0,-0.23,-8.62,3.98,2.79,2:17:24,34.219372N,-112.948662W,1115.10,0.01,14
13555711,31.86,1055.98,0,-0.14,-8.49,4.09,2.79,2:17:25,34.219372N,-112.948662W,1115.10,0.01,14
13556712,31.86,1055.98,0,-0.18,-8.63,3.98,2.86,2:17:26,34.219372N,-112.948662W,1115.10,0.01,14
13557713,31.86,1055.98,0,-0.13,-8.66,4.10,2.75,2:17:27,34.219372N,-112.948662W,1115.10,0.03,14
13558714,31.86,1056.07,0,-0.11,-8.54,4.24,2.80,2:17:28,34.219372N,-112.948662W,1115.10,0.00,14
13559715,31.85,1055.98,0,-0.08,-8.38,4.31,2.82,2:17:29,34.219372N,-112.948662W,1115.10,0.03,14
13560716,31.84,1055.98,0,-0.08,-8.48,4.25,2.78,2:17:30,34.219372N,-112.948662W,1115.10,0.01,14
13561717,31.83,1055.98,0,-0.07,-8.39,4.16,2.78,2:17:31,34.219368N,-112.948662W,1115.10,0.00,14
13562718,31.83,1055.98,0,-0.05,-8.47,4.22,2.80,2:17:32,34.219368N,-112.948662W,1115.10,0.01,14
13563719,31.84,1056.07,0,-0.02,-8.45,4.26,2.80,2:17:33,34.219368N,-112.948662W,1115.10,0.01,14
13564720,31.84,1056.07,0,-0.04,-8.49,4.22,2.83,2:17:34,34.219368N,-112.948662W,1115.10,0.01,14
13565721,31.85,1055.98,0,-0.02,-8.49,4.19,2.77,2:17:35,34.219368N,-112.948662W,1115.10,0.01,14
13566722,31.85,1055.98,0,-0.01,-8.50,4.19,2.80,2:17:36,34.219368N,-112.948662W,1115.10,0.02,14
13567723,31.85,1055.88,0,-0.01,-8.47,4.21,2.80,2:17:37,34.219368N,-112.948662W,1115.10,0.01,14
13568724,31.87,1055.88,0,0.02,-8.49,4.20,2.81,2:17:38,34.219368N,-112.948662W,1115.10,0.01,14
13569725,31.87,1055.88,0,0.00,-8.46,4.21,2.79,2:17:39,34.219368N,-112.948662W,1115.10,0.02,14
13570726,31.88,1055.88,0,0.01,-8.49,4.20,2.80,2:17:40,34.219368N,-112.948662W,1115.10,0.01,14
13571727,31.89,1055.88,0,0.00,-8.48,4.23,2.79,2:17:41,34.219368N,-112.948662W,1115.10,0.01,14
13572728,31.89,1055.88,0,0.04,-8.47,4.20,2.79,2:17:42,34.219368N,-112.948662W,1115.10,0.01,14
13573729,31.90,1055.79,0,0.07,-8.47,4.21,2.77,2:17:43,34.219368N,-112.948662W,1115.10,0.02,14
13574730,31.90,1055.88,0,0.04,-8.43,4.24,2.81,2:17:44,34.219368N,-112.948662W,1115.10,0.01,14
13575731,31.90,1055.79,0,0.09,-8.48,4.29,2.78,2:17:45,34.219368N,-112.948662W,1115.10,0.01,14
13576732,31.90,1055.88,0,0.09,-8.26,4.39,2.86,2:17:46,34.219368N,-112.948662W,1115.10,0.01,14
13577733,31.91,1055.88,0,0.14,-8.40,4.31,2.80,2:17:47,34.219368N,-112.948662W,1115.10,0.01,14
13578734,31.91,1055.88,0,0.18,-8.41,4.18,2.78,2:17:48,34.219368N,-112.948662W,1115.10,0.03,14
13579735,31.91,1055.98,0,0.11,-8.51,4.13,2.78,2:17:49,34.219368N,-112.948662W,1115.10,0.01,14
13580736,31.92,1055.98,0,0.17,-8.54,4.20,2.80,2:17:50,34.219368N,-112.948662W,1115.10,0.01,14
13581737,31.91,1055.98,0,0.22,-8.54,4.34,2.80,2:17:51,34.219368N,-112.948662W,1115.10,0.03,14
13582738,31.91,1055.98,0,0.20,-8.26,4.32,2.79,2:17:52,34.219368N,-112.948662W,1115.10,0.01,14
13583739,31.90,1055.98,0,0.21,-8.47,4.21,2.76,2:17:53,34.219368N,-112.948662W,1115.10,0.02,14
13584740,31.90,1055.98,15,0.19,-8.47,4.28,2.81,2:17:54,34.219368N,-112.948662W,1115.10,0.00,14
13585741,31.90,1055.98,0,0.30,-8.51,4.29,2.72,2:17:55,34.219368N,-112.948662W,1115.10,0.01,14
13586742,31.89,1055.88,0,0.23,-8.35,4.35,2.83,2:17:56,34.219368N,-112.948662W,1115.10,0.01,14
13587743,31.86,1055.98,0,0.33,-8.71,4.18,2.72,2:17:57,34.219368N,-112.948662W,1115.10,0.01,14
13588744,31.84,1055.88,0,0.37,-8.48,4.16,2.77,2:17:58,34.219368N,-112.948662W,1115.10,0.02,14
13589745,31.82,1055.88,0,0.37,-8.36,4.24,2.73,2:17:59,34.219368N,-112.948662W,1115.10,0.01,14
13590746,31.80,1055.79,0,0.39,-8.56,4.21,2.79,2:18:0,34.219368N,-112.948662W,1115.10,0.01,14
13591747,31.78,1055.98,0,0.39,-8.39,4.26,2.73,2:18:1,34.219368N,-112.948662W,1115.10,0.01,14
13592748,31.73,1055.98,0,0.40,-8.46,4.18,2.79,2:18:2,34.219368N,-112.948662W,1115.10,0.01,14
13593749,31.71,1055.98,1,0.45,-8.40,4.13,2.79,2:18:3,34.219368N,-112.948662W,1115.10,0.01,14
13594750,31.68,1055.88,0,0.50,-8.55,4.01,2.77,2:18:4,34.219368N,-112.948662W,1115.10,0.01,14
13595751,31.66,1055.88,0,0.47,-8.48,4.17,2.79,2:18:5,34.219368N,-112.948662W,1115.10,0.01,14
13596752,31.64,1055.88,0,0.44,-8.47,4.24,2.79,2:18:6,34.219368N,-112.948662W,1115.10,0.01,14
13597753,31.64,1055.98,0,0.49,-8.20,4.29,2.64,2:18:7,34.219368N,-112.948662W,1115.00,0.02,14
13598754,31.61,1056.07,0,0.50,-8.56,4.22,2.77,2:18:8,34.219368N,-112.948662W,1115.00,0.01,14
13599755,31.57,1056.07,0,0.48,-8.38,4.31,2.78,2:18:9,34.219368N,-112.948662W,1115.00,0.01,14
13600756,31.51,1056.16,0,0.50,-8.32,4.23,2.75,2:18:10,34.219368N,-112.948662W,1115.00,0.01,14
13601757,31.46,1056.16,0,0.51,-8.60,4.20,2.81,2:18:11,34.219368N,-112.948662W,1115.00,0.00,14
13602758,31.40,1056.16,0,0.52,-8.49,4.18,2.80,2:18:12,34.219368N,-112.948662W,1115.00,0.01,14
13603759,31.33,1056.25,0,0.54,-8.45,4.24,2.79,2:18:13,34.219368N,-112.948662W,1115.00,0.01,14
13604760,31.27,1056.16,0,0.52,-8.45,4.21,2.83,2:18:14,34.219368N,-112.948662W,1115.00,0.02,14
13605761,31.24,1056.07,0,0.55,-8.48,4.19,2.80,2:18:15,34.219368N,-112.948662W,1115.00,0.01,14
13606762,31.22,1056.07,0,0.56,-8.43,4.20,2.79,2:18:16,34.219368N,-112.948662W,1115.00,0.02,14
13607763,31.22,1056.07,0,0.59,-8.43,4.20,2.80,2:18:17,34.219368N,-112.948662W,1115.00,0.02,14
13608764,31.21,1056.07,0,0.62,-8.49,4.22,2.80,2:18:18,34.219368N,-112.948662W,1115.00,0.01,14
13609765,31.20,1056.07,0,0.59,-8.47,4.18,2.79,2:18:19,34.219368N,-112.948662W,1115.00,0.01,14
13610766,31.20,1056.16,0,0.68,-8.46,4.20,2.79,2:18:20,34.219368N,-112.948662W,1115.00,0.02,14
13611767,31.20,1056.07,0,0.65,-8.47,4.19,2.81,2:18:21,34.219368N,-112.948662W,1115.00,0.01,14
13612768,31.21,1055.98,0,0.72,-8.46,4.22,2.80,2:18:22,34.219368N,-112.948662W,1115.00,0.02,14
13613769,31.22,1055.98,0,0.74,-8.46,4.24,2.80,2:18:23,34.219368N,-112.948662W,1115.00,0.02,14
13614770,31.22,1056.07,0,0.71,-8.45,4.19,2.79,2:18:24,34.219368N,-112.948662W,1115.10,0.01,14
13615771,31.22,1055.98,0,0.75,-8.48,4.20,2.79,2:18:25,34.219368N,-112.948662W,1115.10,0.01,14
13616772,31.22,1055.88,0,0.73,-8.35,4.38,2.79,2:18:26,34.219368N,-112.948662W,1115.10,0.00,14
13617773,31.22,1055.88,20,0.74,-8.21,4.31,2.79,2:18:27,34.219368N,-112.948662W,1115.10,0.01,14
13618774,31.22,1055.98,0,0.80,-8.40,4.30,2.73,2:18:28,34.219368N,-112.948662W,1115.10,0.01,14
13619775,31.19,1056.07,0,0.80,-8.30,4.32,2.82,2:18:29,34.219368N,-112.948662W,1115.10,0.02,14
13620776,31.14,1056.07,0,0.82,-8.60,4.19,2.81,2:18:30,34.219368N,-112.948662W,1115.10,0.01,14
13621777,31.11,1055.98,4,0.86,-8.48,4.12,2.79,2:18:31,34.219368N,-112.948662W,1115.10,0.02,14
13622778,31.06,1056.07,0,0.86,-8.43,4.12,2.64,2:18:32,34.219368N,-112.948662W,1115.10,0.00,14
13623779,30.99,1056.07,0,0.94,-8.49,4.17,2.79,2:18:33,34.219368N,-112.948662W,1115.10,0.01,14
13624780,30.95,1056.07,0,0.88,-8.56,4.23,2.62,2:18:34,34.219368N,-112.948662W,1115.10,0.02,14
13625781,30.92,1056.07,0,0.93,-8.36,4.20,2.77,2:18:35,34.219368N,-112.948662W,1115.10,0.01,14
13626782,30.89,1056.07,0,0.95,-8.48,4.25,2.78,2:18:36,34.219368N,-112.948662W,1115.10,0.01,14
13627783,30.86,1055.98,0,0.95,-8.41,4.30,2.82,2:18:37,34.219368N,-112.948662W,1115.10,0.01,14
13628784,30.83,1055.88,0,0.96,-8.48,4.26,2.79,2:18:38,34.219368N,-112.948662W,1115.10,0.01,14
13629785,30.82,1055.88,0,0.99,-8.36,4.29,2.80,2:18:39,34.219368N,-112.948662W,1115.10,0.02,14
13630786,30.81,1055.98,0,1.02,-8.47,4.26,2.84,2:18:40,34.219368N,-112.948662W,1115.10,0.09,14
13631787,30.80,1055.98,0,1.03,-8.48,4.15,2.75,2:18:41,34.219368N,-112.948662W,1115.10,0.02,14
13632788,30.80,1055.88,0,1.03,-8.61,4.16,2.81,2:18:42,34.219368N,-112.948662W,1115.10,0.02,14
13633789,30.79,1055.79,0,1.04,-8.28,4.22,2.80,2:18:43,34.219368N,-112.948662W,1115.10,0.00,14
13634790,30.79,1055.79,0,1.05,-8.45,4.19,2.82,2:18:44,34.219368N,-112.948662W,1115.10,0.01,14
13635791,30.78,1055.70,0,1.03,-8.44,4.23,2.79,2:18:45,34.219368N,-112.948662W,1115.10,0.03,14
13636792,30.79,1055.61,0,1.06,-8.52,4.28,2.83,2:18:46,34.219368N,-112.948662W,1115.10,0.01,14
13637793,30.80,1055.70,0,1.05,-8.35,4.48,2.89,2:18:47,34.219368N,-112.948662W,1115.10,0.05,14
13638794,30.79,1055.70,0,1.09,-8.31,4.34,2.82,2:18:48,34.219368N,-112.948662W,1115.10,0.07,14
13639795,30.77,1055.79,0,1.12,-8.50,4.30,2.80,2:18:49,34.219368N,-112.948662W,1115.10,0.02,14
13640796,30.75,1055.79,0,1.11,-8.52,4.31,2.82,2:18:50,34.219368N,-112.948662W,1115.20,0.00,14
13641797,30.73,1055.88,0,1.14,-8.48,4.34,2.81,2:18:51,34.219368N,-112.948662W,1115.20,0.01,14
13642798,30.72,1055.98,0,1.18,-8.52,4.13,2.81,2:18:52,34.219368N,-112.948662W,1115.20,0.01,14
13643799,30.70,1055.88,0,1.14,-8.37,4.34,2.81,2:18:53,34.219368N,-112.948662W,1115.20,0.03,14
13644800,30.69,1055.79,0,1.18,-8.49,4.08,2.82,2:18:54,34.219368N,-112.948662W,1115.20,0.02,14
13645801,30.69,1055.79,0,1.19,-8.62,4.06,2.77,2:18:55,34.219368N,-112.948662W,1115.20,0.05,14
13646802,30.69,1055.88,0,1.21,-8.50,4.21,2.83,2:18:56,34.219368N,-112.948662W,1115.10,0.00,14
13647803,30.70,1055.79,0,1.22,-8.39,4.24,2.79,2:18:57,34.219368N,-112.948662W,1115.20,0.01,14
13648804,30.72,1055.79,0,1.23,-8.50,4.25,2.81,2:18:58,34.219368N,-112.948662W,1115.20,0.02,14
13649805,30.73,1055.79,0,1.27,-8.51,4.29,2.76,2:18:59,34.219368N,-112.948662W,1115.20,0.01,14
13650806,30.74,1055.88,0,1.29,-8.46,4.34,2.81,2:19:0,34.219368N,-112.948662W,1115.20,0.02,14
13651807,30.75,1055.79,0,1.30,-8.54,4.38,2.79,2:19:1,34.219368N,-112.948662W,1115.20,0.00,14
13652808,30.75,1055.79,0,1.28,-8.32,4.52,2.76,2:19:2,34.219368N,-112.948662W,1115.20,0.01,14
13653809,30.75,1055.79,0,1.30,-8.40,4.26,2.78,2:19:3,34.219368N,-112.948662W,1115.20,0.00,14
13654810,30.76,1055.79,0,1.34,-8.34,4.17,2.77,2:19:4,34.219368N,-112.948662W,1115.20,0.02,14
13655811,30.76,1055.70,0,1.40,-8.49,4.21,2.83,2:19:5,34.219368N,-112.948662W,1115.20,0.00,14
13656812,30.76,1055.70,0,1.36,-8.61,4.13,2.82,2:19:6,34.219368N,-112.948662W,1115.20,0.00,14
13657813,30.78,1055.70,0,1.43,-8.54,4.17,2.82,2:19:7,34.219368N,-112.948662W,1115.20,0.01,14
13658814,30.79,1055.61,0,1.42,-8.56,4.13,2.79,2:19:8,34.219368N,-112.948662W,1115.20,0.00,14
13659815,30.81,1055.61,0,1.46,-8.46,4.24,2.79,2:19:9,34.219368N,-112.948662W,1115.20,0.01,14
13660816,30.81,1055.61,0,1.47,-8.22,4.26,2.84,2:19:10,34.219368N,-112.948662W,1115.20,0.03,14
13661817,30.81,1055.79,0,1.46,-8.39,4.33,2.79,2:19:11,34.219368N,-112.948662W,1115.20,0.03,14
13662818,30.82,1055.79,0,1.50,-8.49,4.16,2.82,2:19:12,34.219368N,-112.948662W,1115.20,0.00,14
13663819,30.84,1055.79,0,1.48,-8.48,4.23,2.79,2:19:13,34.219368N,-112.948662W,1115.20,0.01,14
13664820,30.85,1055.79,0,1.52,-8.48,4.20,2.81,2:19:14,34.219368N,-112.948662W,1115.20,0.01,14
13665821,30.85,1055.79,0,1.52,-8.39,4.19,2.79,2:19:15,34.219368N,-112.948662W,1115.20,0.02,14
13666822,30.86,1055.88,15,1.52,-8.46,4.27,2.79,2:19:16,34.219368N,-112.948662W,1115.20,0.00,14
13667823,30.86,1055.88,0,1.52,-8.43,4.28,2.83,2:19:17,34.219368N,-112.948662W,1115.20,0.01,14
13668824,30.87,1055.88,0,1.55,-8.38,4.19,2.77,2:19:18,34.219368N,-112.948662W,1115.20,0.01,14
13669825,30.86,1055.79,0,1.56,-8.05,4.19,2.83,2:19:19,34.219368N,-112.948662W,1115.20,0.00,14
13670826,30.84,1055.98,0,1.53,-8.04,4.59,2.43,2:19:20,34.219368N,-112.948662W,1115.20,0.01,14
13671827,30.80,1055.98,5,1.56,-8.70,4.19,2.83,2:19:21,34.219368N,-112.948662W,1115.20,0.00,14
13672828,30.74,1056.07,0,1.56,-8.32,4.66,2.71,2:19:22,34.219368N,-112.948662W,1115.20,0.00,14
13673829,30.68,1056.16,0,1.60,-8.82,4.23,2.93,2:19:23,34.219368N,-112.948662W,1115.20,0.01,14
13674830,30.63,1056.07,3,1.57,-8.56,4.39,2.90,2:19:24,34.219368N,-112.948662W,1115.20,0.01,13
13675831,30.59,1055.98,0,1.61,-8.31,4.35,2.76,2:19:25,34.219368N,-112.948662W,1115.20,0.02,14
13676832,30.55,1055.98,0,1.64,-8.59,4.43,2.95,2:19:26,34.219368N,-112.948662W,1115.20,0.02,13
13677833,30.51,1055.88,0,1.64,-8.42,4.13,2.73,2:19:27,34.219368N,-112.948662W,1115.20,0.01,14
13678834,30.46,1055.79,0,1.68,-8.51,4.24,2.83,2:19:28,34.219368N,-112.948662W,1115.20,0.00,13
13679835,30.42,1055.70,0,1.65,-8.33,4.27,2.79,2:19:29,34.219368N,-112.948662W,1115.20,0.01,13
13680836,30.40,1055.70,5,1.71,-8.85,4.29,2.65,2:19:30,34.219368N,-112.948662W,1115.20,0.01,14
13681837,30.37,1055.79,0,1.75,-8.91,3.71,2.79,2:19:31,34.219368N,-112.948662W,1115.20,0.01,13
13682838,30.30,1055.79,10,1.75,-8.42,4.06,2.77,2:19:32,34.219368N,-112.948662W,1115.20,0.00,13
13683839,30.24,1055.79,0,1.78,-8.57,4.24,2.79,2:19:33,34.219368N,-112.948662W,1115.20,0.01,13
13684840,30.21,1055.79,0,1.78,-8.37,4.16,2.77,2:19:34,34.219368N,-112.948662W,1115.20,0.01,13
13685841,30.18,1055.98,0,1.80,-8.42,4.30,2.78,2:19:35,34.219368N,-112.948662W,1115.20,0.00,13
13686842,30.17,1055.88,0,1.77,-8.55,4.23,2.80,2:19:36,34.219368N,-112.948662W,1115.20,0.01,13
13687843,30.15,1055.98,0,1.79,-8.49,4.18,2.74,2:19:37,34.219368N,-112.948662W,1115.20,0.02,14
13688844,30.12,1055.88,0,1.82,-8.47,4.19,2.79,2:19:38,34.219368N,-112.948662W,1115.20,0.00,14
13689845,30.10,1055.79,0,1.88,-8.46,4.25,2.81,2:19:39,34.219368N,-112.948662W,1115.20,0.01,14
13690846,30.08,1055.79,0,1.86,-8.39,4.31,2.82,2:19:40,34.219368N,-112.948662W,1115.20,0.02,14
13691847,30.06,1055.70,0,1.91,-8.08,4.38,2.71,2:19:41,34.219368N,-112.948662W,1115.20,0.01,14
13692848,30.03,1055.79,11,1.93,-9.07,4.15,2.80,2:19:42,34.219368N,-112.948662W,1115.20,0.01,13
13693849,29.99,1055.70,0,1.98,-8.22,4.50,2.90,2:19:43,34.219368N,-112.948662W,1115.20,0.02,14
13694850,29.95,1055.61,10,1.98,-8.21,4.43,2.79,2:19:44,34.219368N,-112.948662W,1115.20,0.02,14
13695851,29.91,1055.61,0,1.96,-8.15,4.42,2.64,2:19:45,34.219368N,-112.948662W,1115.20,0.01,14
13696852,29.89,1055.61,4,1.97,-8.56,4.23,2.84,2:19:46,34.219368N,-112.948662W,1115.20,0.02,14
13697853,29.85,1055.61,0,2.02,-8.30,4.31,2.79,2:19:47,34.219368N,-112.948662W,1115.20,0.02,14
13698854,29.81,1055.61,0,2.01,-8.30,4.32,2.87,2:19:48,34.219368N,-112.948662W,1115.20,0.01,14
13699855,29.78,1055.61,0,2.02,-8.54,4.44,2.97,2:19:49,34.219368N,-112.948662W,1115.20,0.01,14
13700856,29.75,1055.61,0,2.05,-8.36,4.34,2.72,2:19:50,34.219368N,-112.948662W,1115.20,0.01,14
13701857,29.72,1055.61,0,2.02,-8.43,4.18,2.81,2:19:51,34.219368N,-112.948662W,1115.30,0.01,14
13702858,29.66,1055.61,0,2.09,-8.43,4.25,2.79,2:19:52,34.219368N,-112.948662W,1115.30,0.02,14
13703859,29.63,1055.61,0,2.06,-8.49,4.19,2.81,2:19:53,34.219368N,-112.948662W,1115.30,0.01,14
13704860,29.62,1055.61,0,2.09,-8.51,4.21,2.78,2:19:54,34.219368N,-112.948662W,1115.30,0.03,14
13705861,29.61,1055.42,0,2.09,-8.33,4.13,2.86,2:19:55,34.219368N,-112.948662W,1115.30,0.01,14
13706862,29.61,1055.52,0,2.09,-8.59,4.27,2.88,2:19:56,34.219368N,-112.948662W,1115.30,0.02,14
13707863,29.60,1055.52,0,2.12,-8.28,4.60,2.82,2:19:57,34.219368N,-112.948662W,1115.30,0.01,14
13708864,29.57,1055.52,0,2.14,-8.52,4.41,2.80,2:19:58,34.219368N,-112.948662W,1115.30,0.05,14
13709865,29.54,1055.61,0,2.18,-8.41,4.42,2.78,2:19:59,34.219368N,-112.948662W,1115.30,0.02,14
13710866,29.52,1055.61,0,2.21,-8.42,4.15,2.84,2:20:0,34.219368N,-112.948662W,1115.30,0.05,14
13711867,29.51,1055.70,0,2.18,-8.47,4.17,2.80,2:20:1,34.219368N,-112.948662W,1115.30,0.02,14
13712868,29.51,1055.70,0,2.19,-8.60,4.13,2.83,2:20:2,34.219368N,-112.948662W,1115.30,0.03,13
13713869,29.51,1055.70,0,2.21,-8.42,4.28,2.79,2:20:3,34.219368N,-112.948662W,1115.30,0.01,14
13714870,29.52,1055.79,0,2.24,-8.30,4.23,2.69,2:20:4,34.219368N,-112.948662W,1115.30,0.03,14
13715871,29.53,1055.79,0,2.23,-8.73,4.20,2.86,2:20:5,34.219368N,-112.948662W,1115.30,0.01,14
13716872,29.51,1055.79,16,2.30,-8.58,4.45,2.73,2:20:6,34.219368N,-112.948662W,1115.30,0.02,14
13717873,29.51,1055.70,0,2.29,-8.44,4.21,2.86,2:20:7,34.219368N,-112.948662W,1115.30,0.02,14
13718874,29.50,1055.79,0,2.34,-8.56,4.35,2.80,2:20:8,34.219368N,-112.948662W,1115.30,0.01,14
13719875,29.49,1055.79,0,2.34,-8.36,4.46,2.79,2:20:9,34.219368N,-112.948662W,1115.20,0.01,14
13720876,29.48,1055.79,0,2.32,-8.41,4.25,2.81,2:20:10,34.219368N,-112.948662W,1115.30,0.01,14
13721877,29.48,1055.88,0,2.35,-8.50,4.13,2.73,2:20:11,34.219368N,-112.948662W,1115.20,0.02,14
13722878,29.47,1055.88,0,2.37,-8.42,4.18,2.84,2:20:12,34.219368N,-112.948662W,1115.30,0.00,14
13723879,29.45,1055.88,0,2.35,-8.55,4.18,2.83,2:20:13,34.219368N,-112.948662W,1115.20,0.01,14
13724880,29.45,1055.79,0,2.41,-8.45,4.17,2.81,2:20:14,34.219368N,-112.948662W,1115.20,0.01,14
13725881,29.45,1055.70,0,2.45,-8.41,4.28,2.81,2:20:15,34.219368N,-112.948662W,1115.20,0.01,14
13726882,29.46,1055.70,0,2.40,-8.40,4.23,2.84,2:20:16,34.219368N,-112.948662W,1115.20,0.02,14
13727883,29.47,1055.61,0,2.44,-8.51,4.18,2.83,2:20:17,34.219368N,-112.948662W,1115.20,0.03,14
13728884,29.48,1055.70,0,2.44,-8.40,4.29,2.80,2:20:18,34.219368N,-112.948662W,1115.30,0.01,14
13729885,29.48,1055.70,0,2.52,-8.54,4.36,2.85,2:20:19,34.219368N,-112.948662W,1115.30,0.01,14
13730886,29.47,1055.70,0,2.47,-8.42,4.25,2.77,2:20:20,34.219368N,-112.948662W,1115.30,0.03,14
13731887,29.46,1055.70,0,2.55,-8.40,4.25,2.78,2:20:21,34.219368N,-112.948662W,1115.30,0.02,14
13732888,29.46,1055.79,0,2.55,-8.50,4.19,2.80,2:20:22,34.219368N,-112.948662W,1115.30,0.02,14
13733889,29.46,1055.79,0,2.54,-8.48,4.20,2.82,2:20:23,34.219368N,-112.948662W,1115.30,0.01,14
13734890,29.45,1055.88,0,2.54,-8.55,4.15,2.79,2:20:24,34.219368N,-112.948662W,1115.30,0.02,14
13735891,29.45,1055.88,0,2.57,-8.43,4.16,2.78,2:20:25,34.219368N,-112.948662W,1115.30,0.02,14
13736892,29.41,1055.88,0,2.57,-8.41,4.20,2.76,2:20:26,34.219368N,-112.948662W,1115.20,0.02,14
13737893,29.39,1055.88,0,2.58,-8.48,4.17,2.82,2:20:27,34.219368N,-112.948662W,1115.30,0.01,14
13738894,29.39,1055.79,0,2.58,-8.39,4.25,2.73,2:20:28,34.219368N,-112.948662W,1115.30,0.01,14
13739895,29.39,1055.79,0,2.58,-8.63,4.10,2.82,2:20:29,34.219368N,-112.948662W,1115.30,0.02,14
13740896,29.39,1055.88,0,2.59,-8.51,4.18,2.71,2:20:30,34.219368N,-112.948662W,1115.30,0.01,14
13741897,29.39,1055.79,0,2.61,-8.43,4.33,2.79,2:20:31,34.219368N,-112.948662W,1115.30,0.01,14
13742898,29.39,1055.79,0,2.57,-8.31,4.34,2.84,2:20:32,34.219368N,-112.948662W,1115.30,0.02,14
13743899,29.38,1055.79,0,2.58,-8.37,4.34,2.75,2:20:33,34.219368N,-112.948662W,1115.30,0.01,14
13744900,29.38,1055.88,0,2.62,-8.43,4.24,2.80,2:20:34,34.219368N,-112.948662W,1115.20,0.01,14
13745901,29.39,1055.88,0,2.62,-8.38,4.30,2.84,2:20:35,34.219368N,-112.948662W,1115.20,0.03,14
13746902,29.40,1055.79,0,2.64,-8.58,4.16,2.77,2:20:36,34.219368N,-112.948662W,1115.20,0.01,14
13747903,29.40,1055.88,0,2.71,-8.34,4.27,2.84,2:20:37,34.219368N,-112.948662W,1115.20,0.02,14
13748904,29.41,1055.88,0,2.70,-8.41,4.14,2.82,2:20:38,34.219368N,-112.948662W,1115.20,0.02,14
13749905,29.41,1055.88,0,2.72,-8.53,4.23,2.79,2:20:39,34.219368N,-112.948662W,1115.20,0.01,14
13750906,29.42,1055.88,0,2.71,-8.44,4.20,2.82,2:20:40,34.219368N,-112.948662W,1115.20,0.01,14
13751907,29.44,1055.79,0,2.72,-8.47,4.24,2.77,2:20:41,34.219368N,-112.948662W,1115.20,0.00,14
13752908,29.46,1055.70,0,2.73,-8.39,4.32,2.80,2:20:42,34.219368N,-112.948662W,1115.20,0.03,14
13753909,29.47,1055.70,0,2.78,-8.50,4.22,2.81,2:20:43,34.219368N,-112.948662W,1115.20,0.01,14
13754910,29.49,1055.70,0,2.75,-8.53,4.10,2.82,2:20:44,34.219368N,-112.948662W,1115.20,0.01,14
13755911,29.50,1055.79,0,2.80,-8.60,4.14,2.76,2:20:45,34.219368N,-112.948662W,1115.20,0.01,14
13756912,29.51,1055.61,0,2.84,-8.43,4.12,2.81,2:20:46,34.219368N,-112.948662W,1115.20,0.02,14
13757913,29.52,1055.61,0,2.84,-8.45,4.15,2.83,2:20:47,34.219368N,-112.948662W,1115.20,0.01,14
13758914,29.52,1055.70,0,2.91,-8.41,4.22,2.74,2:20:48,34.219368N,-112.948662W,1115.20,0.01,14
13759915,29.52,1055.70,0,2.86,-8.51,4.19,2.81,2:20:49,34.219368N,-112.948662W,1115.20,0.03,14
13760916,29.52,1055.70,0,2.86,-8.51,4.16,2.82,2:20:50,34.219368N,-112.948662W,1115.20,0.01,14
13761917,29.52,1055.70,0,2.91,-8.52,4.18,2.80,2:20:52,34.219368N,-112.948662W,1115.20,0.01,14
13762918,29.53,1055.70,0,2.95,-8.48,4.15,2.80,2:20:52,34.219368N,-112.948662W,1115.20,0.01,14
13763919,29.55,1055.70,0,2.94,-8.48,4.22,2.80,2:20:53,34.219368N,-112.948662W,1115.20,0.02,14
13764920,29.58,1055.70,0,2.95,-8.47,4.29,2.78,2:20:54,34.219368N,-112.948662W,1115.20,0.02,14
13765921,29.60,1055.70,0,3.02,-8.35,4.28,2.76,2:20:56,34.219368N,-112.948662W,1115.20,0.02,14
13766922,29.62,1055.79,0,2.99,-8.37,4.30,2.78,2:20:56,34.219368N,-112.948662W,1115.20,0.01,14
13767923,29.63,1055.79,0,3.00,-8.48,4.11,2.78,2:20:58,34.219368N,-112.948662W,1115.20,0.00,13
13768924,29.63,1055.79,0,3.00,-8.50,4.10,2.78,2:20:59,34.219368N,-112.948662W,1115.20,0.01,14
13769925,29.64,1055.79,0,3.03,-8.49,4.26,2.79,2:21:0,34.219368N,-112.948662W,1115.20,0.01,14
13770926,29.66,1055.79,0,3.09,-8.33,4.31,2.80,2:21:1,34.219368N,-112.948662W,1115.10,0.01,14
13771927,29.68,1055.70,0,3.07,-8.37,4.23,2.79,2:21:2,34.219368N,-112.948662W,1115.20,0.01,14
13772928,29.70,1055.70,0,3.06,-8.42,4.27,2.80,2:21:3,34.219368N,-112.948662W,1115.10,0.01,14
13773929,29.72,1055.70,0,3.08,-8.52,4.28,2.79,2:21:4,34.219368N,-112.948662W,1115.20,0.01,14
13774930,29.73,1055.70,0,3.07,-8.43,4.24,2.78,2:21:5,34.219368N,-112.948662W,1115.10,0.02,14
13775931,29.74,1055.70,0,3.10,-8.40,4.34,2.81,2:21:6,34.219368N,-112.948662W,1115.10,0.01,14
13776932,29.75,1055.70,0,3.09,-8.45,4.24,2.81,2:21:7,34.219368N,-112.948662W,1115.20,0.02,14
13777933,29.76,1055.70,0,3.09,-8.41,4.24,2.78,2:21:8,34.219368N,-112.948662W,1115.20,0.01,14
13778934,29.78,1055.70,0,3.09,-8.45,4.17,2.80,2:21:9,34.219368N,-112.948662W,1115.20,0.01,14
13779935,29.80,1055.70,0,3.15,-8.45,4.20,2.79,2:21:10,34.219368N,-112.948662W,1115.20,0.01,14
13780936,29.82,1055.61,0,3.16,-8.56,4.13,2.80,2:21:11,34.219368N,-112.948662W,1115.20,0.00,14
13781937,29.85,1055.61,0,3.12,-8.41,4.19,2.77,2:21:12,34.219368N,-112.948662W,1115.20,0.01,14
13782938,29.87,1055.61,0,3.18,-8.41,4.23,2.79,2:21:13,34.219368N,-112.948662W,1115.20,0.01,14
13783939,29.89,1055.61,0,3.19,-8.47,4.23,2.80,2:21:14,34.219368N,-112.948662W,1115.20,0.02,14
13784940,29.91,1055.52,0,3.21,-8.47,4.19,2.76,2:21:15,34.219368N,-112.948662W,1115.20,0.01,14
13785941,29.92,1055.61,0,3.21,-8.22,4.31,2.75,2:21:16,34.219368N,-112.948662W,1115.20,0.01,14
13786942,29.89,1055.61,0,3.28,-8.23,4.28,2.82,2:21:17,34.219368N,-112.948662W,1115.20,0.01,14
13787943,29.84,1055.61,0,3.26,-8.47,4.23,2.75,2:21:18,34.219368N,-112.948662W,1115.20,0.02,14
13788944,29.81,1055.61,0,3.32,-8.41,4.24,2.82,2:21:19,34.219368N,-112.948662W,1115.20,0.01,14
13789945,29.80,1055.61,0,3.27,-8.33,4.23,2.80,2:21:20,34.219368N,-112.948662W,1115.10,0.01,14
13790946,29.79,1055.70,0,3.32,-8.48,4.16,2.82,2:21:21,34.219368N,-112.948662W,1115.20,0.02,14
13791947,29.78,1055.70,0,3.30,-8.28,4.19,2.76,2:21:22,34.219368N,-112.948662W,1115.20,0.01,14
13792948,29.76,1055.70,0,3.31,-8.60,4.17,2.83,2:21:23,34.219368N,-112.948662W,1115.20,0.01,14
13793949,29.74,1055.79,0,3.36,-8.49,4.22,2.76,2:21:24,34.219368N,-112.948662W,1115.20,0.02,14
13794950,29.73,1055.70,0,3.34,-8.48,4.18,2.79,2:21:25,34.219368N,-112.948662W,1115.20,0.02,14
13795951,29.73,1055.70,0,3.39,-8.49,4.13,2.80,2:21:26,34.219368N,-112.948662W,1115.20,0.01,14
13796952,29.73,1055.70,0,3.37,-8.50,4.17,2.79,2:21:27,34.219368N,-112.948662W,1115.10,0.01,14
13797953,29.74,1055.70,0,3.40,-8.52,4.18,2.80,2:21:28,34.219368N,-112.948662W,1115.20,0.00,14
13798954,29.75,1055.61,0,3.40,-8.47,4.14,2.77,2:21:29,34.219368N,-112.948662W,1115.20,0.01,14
13799955,29.75,1055.70,0,3.43,-8.50,4.23,2.79,2:21:30,34.219368N,-112.948662W,1115.20,0.01,14
13800956,29.75,1055.70,0,3.45,-8.37,4.26,2.80,2:21:31,34.219368N,-112.948662W,1115.20,0.01,14
13801957,29.76,1055.70,0,3.51,-8.41,4.32,2.77,2:21:32,34.219368N,-112.948662W,1115.20,0.02,14
13802958,29.77,1055.70,0,3.51,-8.48,4.17,2.80,2:21:33,34.219368N,-112.948662W,1115.20,0.01,14
13803959,29.77,1055.70,0,3.48,-8.47,4.16,2.75,2:21:34,34.219368N,-112.948662W,1115.20,0.01,14
13804960,29.76,1055.70,0,3.49,-8.38,4.33,2.83,2:21:35,34.219368N,-112.948662W,1115.20,0.02,14
13805961,29.75,1055.70,0,3.53,-8.39,4.25,2.82,2:21:36,34.219368N,-112.948662W,1115.20,0.01,14
13806962,29.73,1055.70,0,3.59,-8.51,4.20,2.83,2:21:37,34.219368N,-112.948662W,1115.20,0.01,14
13807963,29.73,1055.70,0,3.57,-8.50,4.17,2.78,2:21:38,34.219368N,-112.948662W,1115.20,0.01,14
13808964,29.73,1055.70,0,3.59,-8.49,4.18,2.80,2:21:39,34.219368N,-112.948662W,1115.20,0.01,14
13809965,29.73,1055.70,0,3.59,-8.48,4.17,2.79,2:21:40,34.219368N,-112.948662W,1115.20,0.02,14
13810966,29.74,1055.70,0,3.59,-8.48,4.21,2.80,2:21:41,34.219368N,-112.948662W,1115.20,0.01,14
13811967,29.76,1055.70,0,3.59,-8.50,4.20,2.83,2:21:42,34.219368N,-112.948662W,1115.20,0.01,14
13812968,29.78,1055.79,0,3.62,-8.42,4.21,2.79,2:21:43,34.219368N,-112.948662W,1115.20,0.02,14
13813969,29.79,1055.70,0,3.62,-8.46,4.20,2.79,2:21:44,34.219368N,-112.948662W,1115.20,0.01,14
