time_since_start,bme_temp,bme_alt,uv,ism_temp,acc_x,acc_y,acc_z,gps_time,latitude,longitude,gps_alt,speed,sats
8709870,13.25,22343.95,317,-11.43,-0.34,-0.49,9.90,12:56:40,34.054260N,-113.280602W,24451.90,8.48,17
8710871,13.18,22330.80,298,-11.46,-0.41,-0.65,9.89,12:56:41,34.054222N,-113.280586W,24456.00,9.05,17
8711872,13.14,22319.33,343,-11.43,-0.13,-0.61,9.96,12:56:42,34.054188N,-113.280579W,24459.80,9.37,17
8712873,13.14,22166.05,106,-11.43,-0.34,-0.13,10.05,12:56:43,34.054153N,-113.280548W,24463.50,9.77,17
8713874,13.59,22280.18,404,-11.36,-0.39,-0.31,10.09,12:56:44,34.054123N,-113.280525W,24466.80,10.72,17
8714875,13.49,22194.75,411,-11.44,-0.04,-0.57,10.08,12:56:45,34.054092N,-113.280472W,24470.20,11.49,17
8715876,13.45,22215.57,400,-11.44,-0.09,-0.58,10.16,12:56:46,34.054066N,-113.280434W,24473.50,11.44,17
8716877,13.41,22435.24,379,-11.43,-0.26,-0.50,10.26,12:56:47,34.054031N,-113.280396W,24476.90,10.57,16
8717878,13.40,22470.53,347,-11.45,-0.45,-0.37,10.26,12:56:48,34.054005N,-113.280373W,24480.40,9.80,16
8718879,13.39,22431.89,311,-11.39,-0.68,-0.47,10.17,12:56:49,34.053970N,-113.280342W,24484.10,9.47,16
8719880,13.33,22401.86,280,-11.39,-0.32,-0.51,10.09,12:56:50,34.053940N,-113.280319W,24487.90,9.28,16
8720881,13.31,22378.61,330,-11.39,-0.03,-0.32,10.01,12:56:51,34.053913N,-113.280281W,24491.80,8.87,16
8721882,13.31,22355.48,346,-11.41,-0.38,-0.02,9.96,12:56:52,34.053890N,-113.280258W,24495.70,8.64,16
8722883,13.33,22343.95,346,-11.39,-0.61,0.06,9.91,12:56:53,34.053867N,-113.280220W,24499.50,7.93,16
8723884,13.36,22335.73,318,-11.38,-0.35,0.25,9.95,12:56:54,34.053848N,-113.280190W,24503.30,6.55,16
8724885,13.39,22332.44,345,-11.38,-0.23,-0.14,10.13,12:56:55,34.053829N,-113.280182W,24506.90,5.18,16
8725886,13.42,22329.16,365,-11.36,-0.10,-0.37,10.19,12:56:56,34.053814N,-113.280167W,24510.40,4.90,16
8726887,13.45,22325.88,356,-11.35,-0.04,-0.69,10.22,12:56:57,34.053795N,-113.280167W,24513.80,5.55,16
8727888,13.47,22319.33,340,-11.36,0.03,-0.30,10.27,12:56:58,34.053772N,-113.280151W,24517.30,6.15,16
8728889,13.49,22099.71,9,-11.36,-0.53,-0.02,10.31,12:56:59,34.053749N,-113.280144W,24521.00,6.76,16
8729890,14.00,21839.42,11,-11.36,-0.55,-0.45,10.15,12:57:0,34.053726N,-113.280128W,24524.90,7.72,16
8730891,13.97,21679.04,36,-11.38,-0.41,-0.71,9.89,12:57:1,34.053699N,-113.280106W,24528.90,8.32,16
8731892,14.30,21995.58,404,-11.38,-0.03,-0.53,9.70,12:57:2,34.053669N,-113.280075W,24533.00,8.63,15
8732893,14.15,22212.37,337,-11.37,-0.65,-0.17,9.91,12:57:3,34.053638N,-113.280037W,24537.00,9.39,15
8733894,14.07,22517.96,397,-11.37,-0.63,0.28,10.17,12:57:4,34.053604N,-113.280014W,24540.90,10.75,15
8734895,14.04,22358.78,394,-11.37,-0.21,-0.02,10.20,12:57:5,34.053562N,-113.279984W,24544.50,12.72,15
8735896,14.02,22205.95,78,-11.36,-0.69,-0.35,10.21,12:57:6,34.053516N,-113.279945W,24548.00,13.73,15
8736897,14.02,21948.09,9,-11.34,-0.72,-0.14,10.20,12:57:7,34.053471N,-113.279907W,24551.60,14.56,15
8737898,14.16,21842.41,390,-11.35,-0.21,-0.36,10.25,12:57:8,34.053425N,-113.279861W,24555.30,14.82,15
8738899,14.11,22225.21,376,-11.38,0.07,-0.32,10.27,12:57:9,34.053379N,-113.279808W,24559.20,14.18,15
8739900,14.08,22272.06,357,-11.34,-0.09,-0.19,10.14,12:57:10,34.053333N,-113.279770W,24563.20,12.90,15
8740901,14.07,22312.78,391,-11.35,-0.52,-0.37,9.99,12:57:11,34.053291N,-113.279747W,24567.50,12.44,15
8741902,14.03,22334.08,325,-11.35,-0.65,-0.47,9.87,12:57:12,34.053242N,-113.279716W,24571.80,13.16,15
8742903,13.98,22342.30,346,-11.34,-0.33,-0.19,9.84,12:57:13,34.053188N,-113.279694W,24576.00,13.90,15
8743904,13.95,22350.53,309,-11.33,-0.11,-0.02,9.87,12:57:14,34.053131N,-113.279671W,24580.10,14.11,15
8744905,13.95,22368.69,356,-11.36,-0.17,-0.51,9.99,12:57:15,34.053074N,-113.279655W,24584.00,14.39,15
8745906,13.94,22210.76,348,-11.35,-0.09,-0.47,10.05,12:57:16,34.053017N,-113.279640W,24587.70,14.69,15
8746907,14.42,22259.09,319,-11.34,-0.32,-0.21,10.13,12:57:17,34.052963N,-113.279633W,24591.30,14.26,15
8747908,14.32,22406.85,401,-11.32,-0.33,-0.58,10.19,12:57:18,34.052906N,-113.279617W,24594.80,13.92,15
8748909,14.24,22400.19,318,-11.32,-0.15,-0.66,10.25,12:57:19,34.052849N,-113.279617W,24598.40,13.90,15
8749910,14.20,22641.99,387,-11.34,-0.33,-0.19,10.26,12:57:20,34.052792N,-113.279602W,24602.00,14.16,15
8750911,14.17,22472.21,351,-11.30,-0.39,-0.45,10.22,12:57:21,34.052734N,-113.279602W,24605.80,14.80,15
8751912,14.54,22450.33,319,-11.32,-0.14,-0.13,10.11,12:57:22,34.052673N,-113.279587W,24609.90,14.47,15
8752913,14.44,22546.97,343,-11.35,-0.45,-0.49,9.93,12:57:23,34.052616N,-113.279579W,24614.00,14.54,15
8753914,14.36,22410.18,400,-11.32,-0.20,-0.02,9.79,12:57:24,34.052559N,-113.279549W,24618.30,14.82,15
8754915,14.31,22183.57,16,-11.30,-0.35,-0.14,9.85,12:57:25,34.052505N,-113.279526W,24622.60,14.45,15
8755916,14.30,22027.99,376,-11.28,-0.43,-0.26,10.10,12:57:26,34.052456N,-113.279503W,24626.50,14.00,15
8756917,14.77,22123.31,333,-11.33,-0.07,-0.33,10.06,12:57:27,34.052406N,-113.279465W,24630.30,14.30,15
8757918,14.68,22193.15,400,-11.31,-0.58,-0.37,10.09,12:57:28,34.052357N,-113.279427W,24633.80,14.86,15
8758919,14.59,22249.39,317,-11.30,-0.45,0.09,10.17,12:57:29,34.052311N,-113.279373W,24637.40,15.08,15
8759920,14.53,22307.88,322,-11.28,-0.14,-0.39,10.20,12:57:30,34.052258N,-113.279335W,24641.00,15.11,15
8760921,14.49,22480.66,361,-11.27,-0.43,-0.28,10.18,12:57:31,34.052208N,-113.279297W,24644.90,15.31,15
8761922,14.44,22650.71,358,-11.31,-0.47,-0.14,10.15,12:57:32,34.052155N,-113.279259W,24648.70,15.38,15
8762923,14.41,22817.61,371,-11.27,-0.12,-0.41,10.11,12:57:33,34.052101N,-113.279221W,24652.70,14.95,15
8763924,14.41,23020.18,385,-11.27,-0.43,-0.19,10.01,12:57:34,34.052048N,-113.279190W,24656.80,14.54,15
8764925,14.42,23054.12,362,-11.26,-0.27,-0.14,9.85,12:57:35,34.051998N,-113.279152W,24661.00,14.57,15
8765926,14.45,22903.16,337,-11.24,-0.33,0.12,9.78,12:57:36,34.051941N,-113.279129W,24665.10,14.79,15
8766927,14.46,22783.43,328,-11.24,-0.28,0.18,9.88,12:57:37,34.051884N,-113.279106W,24669.00,14.84,15
8767928,14.48,22698.09,367,-11.29,-0.35,-0.10,10.05,12:57:38,34.051823N,-113.279091W,24672.60,15.08,15
8768929,14.51,22436.91,385,-11.23,-0.05,0.02,10.08,12:57:39,34.051762N,-113.279091W,24675.90,15.60,15
8769930,15.03,22201.15,387,-11.22,-0.34,0.02,10.08,12:57:40,34.051701N,-113.279076W,24679.30,16.07,15
8770931,14.98,22273.68,392,-11.23,-0.32,-0.29,10.15,12:57:41,34.051636N,-113.279076W,24682.60,15.81,15
8771932,14.92,22541.84,369,-11.24,-0.43,-0.39,10.27,12:57:42,34.051575N,-113.279076W,24685.90,15.39,15
8772933,14.88,22595.12,392,-11.25,-0.29,0.02,10.30,12:57:43,34.051510N,-113.279076W,24689.30,15.40,15
8773934,14.86,22564.12,311,-11.21,-0.52,-0.04,10.30,12:57:44,34.051449N,-113.279068W,24692.90,15.80,15
8774935,14.83,22541.84,297,-11.20,-0.19,0.13,10.29,12:57:45,34.051384N,-113.279053W,24696.70,16.00,15
8775936,14.85,22516.26,317,-11.25,-0.21,-0.32,10.27,12:57:46,34.051323N,-113.279053W,24700.70,16.29,15
8776937,14.87,22495.88,352,-11.23,-0.06,-0.28,10.19,12:57:47,34.051254N,-113.279037W,24704.90,16.60,15
8777938,14.87,22360.43,11,-11.22,-0.06,-0.11,10.15,12:57:48,34.051186N,-113.279037W,24709.30,16.62,15
8778939,15.27,22541.84,364,-11.17,-0.59,-0.45,10.13,12:57:49,34.051125N,-113.279030W,24713.80,16.31,15
8779940,15.17,22545.26,367,-11.25,-0.31,-0.34,10.19,12:57:50,34.051056N,-113.279015W,24718.40,15.98,15
8780941,15.08,22524.77,372,-11.18,-0.49,-0.35,10.15,12:57:51,34.050991N,-113.278992W,24723.10,16.07,15
8781942,15.01,22360.43,382,-11.20,-0.55,-0.56,10.14,12:57:52,34.050930N,-113.278961W,24727.90,16.41,15
8782943,15.39,22183.57,376,-11.16,-0.53,-0.41,10.23,12:57:53,34.050869N,-113.278954W,24732.80,16.65,15
8783944,15.74,22062.17,389,-11.17,-0.30,-0.17,10.20,12:57:54,34.050804N,-113.278938W,24737.70,16.74,15
8784945,16.01,22102.85,369,-11.17,-0.22,-0.21,10.10,12:57:55,34.050732N,-113.278923W,24742.80,17.10,15
8785946,15.73,22143.85,362,-11.12,-0.43,-0.20,9.98,12:57:56,34.050667N,-113.278938W,24748.00,17.05,15
8786947,15.52,22073.09,403,-11.13,-0.44,-0.11,9.89,12:57:57,34.050598N,-113.278938W,24753.30,16.08,15
8787948,15.37,22099.71,370,-11.11,-0.33,0.19,9.84,12:57:58,34.050533N,-113.278938W,24758.50,15.16,15
8788949,15.23,22367.03,391,-11.13,-0.12,-0.01,9.96,12:57:59,34.050472N,-113.278954W,24763.60,14.69,15
8789950,15.13,22543.55,409,-11.13,-0.09,-0.40,9.87,12:58:0,34.050415N,-113.278954W,24768.60,14.20,15
8790951,15.06,22698.09,352,-11.14,-0.27,-0.56,9.76,12:58:1,34.050362N,-113.278961W,24773.30,13.64,15
8791952,15.01,22664.70,328,-11.13,0.03,-0.38,9.83,12:58:2,34.050308N,-113.278976W,24777.90,13.64,15
8792953,14.97,22624.58,303,-11.14,-0.50,-0.19,9.87,12:58:3,34.050255N,-113.278999W,24782.10,14.30,15
8793954,14.95,22600.31,380,-11.11,-0.54,-0.15,10.14,12:58:4,34.050209N,-113.279037W,24786.00,15.12,15
8794955,14.93,22577.88,361,-11.10,-0.09,-0.38,10.29,12:58:5,34.050159N,-113.279091W,24789.50,15.95,15
8795956,14.92,22560.69,327,-11.10,0.13,-0.49,10.26,12:58:6,34.050114N,-113.279144W,24792.90,16.16,15
8796957,14.93,22465.47,376,-11.12,0.12,-0.31,10.28,12:58:7,34.050064N,-113.279190W,24796.60,16.09,15
8797958,15.28,22460.42,361,-11.09,-0.34,-0.29,10.27,12:58:8,34.050014N,-113.279243W,24800.40,16.04,15
8798959,15.38,22435.24,358,-11.10,-0.58,-0.06,10.22,12:58:9,34.049961N,-113.279282W,24804.40,15.76,15
8799960,15.52,22257.47,353,-11.04,-0.55,-0.22,10.13,12:58:10,34.049911N,-113.279335W,24808.60,15.79,15
8800961,15.88,22330.80,362,-11.07,-0.61,-0.23,10.12,12:58:11,34.049854N,-113.279373W,24813.10,16.18,15
8801962,15.65,22388.56,325,-11.05,-0.22,-0.04,10.08,12:58:12,34.049801N,-113.279427W,24817.60,16.52,15
8802963,15.48,22448.65,328,-11.06,-0.34,-0.34,9.88,12:58:13,34.049755N,-113.279472W,24822.20,16.53,15
8803964,15.33,22485.73,348,-11.02,-0.86,-0.38,9.72,12:58:14,34.049709N,-113.279526W,24826.80,15.81,15
8804965,15.18,22650.71,364,-11.07,-0.53,-0.05,9.69,12:58:15,34.049664N,-113.279579W,24831.30,14.87,15
8805966,15.06,22668.21,381,-11.07,-0.32,-0.30,9.80,12:58:16,34.049622N,-113.279633W,24835.60,13.74,15
8806967,14.99,22680.49,384,-11.03,-0.39,-0.52,9.94,12:58:17,34.049580N,-113.279671W,24839.50,12.47,15
8807968,14.96,22657.70,386,-11.02,-0.29,-0.36,10.01,12:58:18,34.049541N,-113.279709W,24843.10,11.74,15
8808969,14.94,22441.94,433,-11.02,-0.22,-0.59,10.15,12:58:19,34.049503N,-113.279732W,24846.40,11.73,15
8809970,14.96,22147.01,444,-11.00,-0.26,-0.36,10.27,12:58:20,34.049465N,-113.279770W,24849.60,12.18,15
8810971,15.01,22109.13,400,-11.02,-0.40,-0.13,10.34,12:58:21,34.049431N,-113.279808W,24852.70,12.61,15
8811972,15.02,21882.92,392,-10.99,-0.18,0.22,10.29,12:58:22,34.049393N,-113.279846W,24856.10,13.08,15
8812973,15.11,22041.95,356,-11.02,0.02,-0.44,10.22,12:58:23,34.049351N,-113.279884W,24859.70,13.47,15
8813974,15.20,22172.42,355,-10.98,-0.23,-0.24,10.21,12:58:24,34.049301N,-113.279922W,24863.60,13.71,15
8814975,15.18,22385.24,382,-11.00,-0.11,-0.36,10.14,12:58:25,34.049252N,-113.279945W,24867.60,14.32,15
8815976,15.15,22603.77,404,-11.00,-0.04,-0.45,10.05,12:58:26,34.049198N,-113.279976W,24871.70,15.19,15
8816977,15.12,22390.22,370,-10.93,-0.38,-0.49,10.10,12:58:27,34.049137N,-113.279999W,24876.00,16.33,15
8817978,15.60,22435.24,358,-11.01,-0.39,-0.06,10.16,12:58:28,34.049072N,-113.280037W,24880.20,17.15,15
8818979,15.49,22475.59,319,-10.96,-0.08,-0.38,10.18,12:58:29,34.049007N,-113.280075W,24884.50,18.02,15
8819980,15.41,22506.06,330,-10.95,-0.48,-0.44,10.06,12:58:30,34.048943N,-113.280113W,24888.80,18.59,15
8820981,15.34,22541.84,343,-10.91,-0.58,-0.34,9.97,12:58:31,34.048874N,-113.280151W,24893.30,18.67,15
8821982,15.25,22586.49,351,-10.89,-0.33,-0.33,9.99,12:58:32,34.048805N,-113.280190W,24897.80,18.28,15
8822983,15.18,22588.22,358,-10.96,-0.25,-0.17,9.86,12:58:33,34.048744N,-113.280228W,24902.20,17.93,15
8823984,15.12,22589.94,370,-10.92,-0.71,-0.15,9.76,12:58:34,34.048676N,-113.280281W,24906.50,18.02,15
8824985,15.09,22591.67,345,-10.96,-0.42,0.14,9.84,12:58:35,34.048611N,-113.280319W,24910.70,18.85,15
8825986,15.08,22598.58,312,-10.93,-0.14,-0.04,10.03,12:58:36,34.048546N,-113.280373W,24914.70,19.67,15
8826987,15.06,22603.77,302,-10.92,-0.19,-0.39,10.20,12:58:37,34.048485N,-113.280449W,24918.40,20.20,15
8827988,15.04,22691.04,342,-10.90,-0.66,-0.32,10.23,12:58:38,34.048424N,-113.280510W,24921.90,20.27,15
8828989,15.01,22598.58,369,-10.93,-0.46,0.16,10.28,12:58:39,34.048367N,-113.280579W,24925.50,19.61,15
8829990,15.00,22733.47,367,-10.89,-0.52,-0.09,10.32,12:58:40,34.048313N,-113.280640W,24929.10,17.98,15
8830991,15.00,22852.02,391,-10.89,-0.15,-0.42,10.23,12:58:41,34.048264N,-113.280701W,24932.90,16.49,15
8831992,15.01,22754.82,379,-10.88,-0.09,-0.67,10.09,12:58:42,34.048214N,-113.280754W,24936.90,15.68,15
8832993,15.02,22855.65,351,-10.89,0.03,-0.58,9.95,12:58:43,34.048168N,-113.280792W,24941.10,15.25,15
8833994,15.03,22810.39,304,-10.89,-0.16,-0.46,9.92,12:58:44,34.048122N,-113.280846W,24945.50,14.91,15
8834995,15.03,22763.74,346,-10.89,-0.01,-0.26,9.92,12:58:45,34.048080N,-113.280899W,24949.80,14.32,15
8835996,15.04,22724.60,340,-10.86,0.13,-0.67,9.94,12:58:46,34.048042N,-113.280937W,24954.10,13.28,15
8836997,15.06,22675.22,380,-10.89,0.09,-0.26,10.08,12:58:47,34.048008N,-113.280983W,24958.00,11.87,15
8837998,15.27,22692.80,413,-10.84,-0.36,-0.13,10.12,12:58:48,34.047970N,-113.281013W,24961.80,10.39,15
8838999,15.23,22708.68,403,-10.84,-0.21,-0.58,10.15,12:58:49,34.047935N,-113.281021W,24965.60,9.77,15
8840000,15.20,22472.21,386,-10.85,-0.17,-0.62,10.14,12:58:50,34.047901N,-113.281036W,24969.40,9.80,15
8841001,15.20,22692.80,351,-10.87,-0.08,-0.50,10.23,12:58:51,34.047867N,-113.281059W,24973.30,10.07,15
8842002,15.19,22694.57,322,-10.86,-0.20,-0.51,10.19,12:58:52,34.047829N,-113.281075W,24977.20,10.16,15
8843003,15.15,22698.09,332,-10.85,-0.47,-0.42,10.05,12:58:53,34.047791N,-113.281097W,24981.20,10.22,15
8844004,15.10,22721.06,341,-10.84,-0.57,-0.30,9.91,12:58:54,34.047760N,-113.281128W,24985.30,10.27,15
8845005,15.03,22708.68,360,-10.85,-0.44,-0.59,9.89,12:58:55,34.047729N,-113.281166W,24989.60,9.89,15
8846006,15.00,22696.33,370,-10.85,-0.27,-0.19,9.83,12:58:56,34.047699N,-113.281189W,24993.70,9.33,15
8847007,14.99,22687.52,367,-10.85,-0.47,-0.01,9.82,12:58:57,34.047668N,-113.281219W,24997.70,9.62,15
8848008,15.01,22680.49,364,-10.84,-0.63,0.02,9.88,12:58:58,34.047634N,-113.281242W,25001.40,10.55,15
8849009,15.05,22682.25,317,-10.84,-0.45,-0.16,10.07,12:58:59,34.047600N,-113.281281W,25004.90,11.60,15
8850010,15.09,22685.77,326,-10.84,-0.14,-0.07,10.21,12:59:0,34.047565N,-113.281319W,25008.10,12.45,15
8851011,15.11,22684.01,355,-10.84,-0.01,-0.22,10.17,12:59:1,34.047527N,-113.281357W,25011.20,13.11,15
8852012,15.14,22684.01,336,-10.84,-0.07,-0.40,10.23,12:59:2,34.047493N,-113.281410W,25014.40,13.17,15
8853013,15.17,22629.79,379,-10.84,-0.00,-0.22,10.34,12:59:3,34.047455N,-113.281448W,25017.70,12.66,15
8854014,15.45,22309.51,414,-10.84,-0.45,-0.30,10.38,12:59:4,34.047421N,-113.281494W,25021.10,11.86,15
8855015,15.46,22309.51,396,-10.85,-0.31,-0.55,10.30,12:59:5,34.047386N,-113.281532W,25024.80,11.82,15
8856016,15.43,22490.80,382,-10.84,-0.02,-0.70,10.27,12:59:6,34.047352N,-113.281578W,25028.80,12.17,15
8857017,15.41,22638.50,319,-10.83,-0.25,-0.32,10.17,12:59:7,34.047314N,-113.281616W,25033.10,12.65,15
8858018,15.40,22682.25,337,-10.84,-0.45,-0.33,9.98,12:59:8,34.047272N,-113.281654W,25037.70,12.72,15
8859019,15.35,22790.60,337,-10.84,-0.70,-0.31,9.94,12:59:9,34.047237N,-113.281693W,25042.40,12.42,15
8860020,15.28,22848.38,343,-10.82,-0.78,-0.15,10.04,12:59:10,34.047199N,-113.281731W,25047.10,11.44,15
8861021,15.25,22826.64,348,-10.83,-0.46,-0.39,10.07,12:59:11,34.047161N,-113.281754W,25051.70,10.16,15
8862022,15.16,22949.27,360,-10.84,-0.04,-0.40,10.08,12:59:12,34.047127N,-113.281769W,25056.20,8.97,15
8863023,15.08,23008.91,341,-10.84,0.20,-0.41,10.09,12:59:13,34.047092N,-113.281769W,25060.50,8.38,15
8864024,15.06,22949.27,343,-10.82,-0.12,-0.02,10.06,12:59:14,34.047058N,-113.281776W,25064.90,7.95,15
8865025,15.01,22892.16,336,-10.81,-0.40,-0.11,10.13,12:59:15,34.047031N,-113.281792W,25069.30,7.67,15
8866026,15.00,22846.57,299,-10.82,-0.20,-0.33,10.12,12:59:16,34.047001N,-113.281807W,25073.60,7.64,15
8867027,15.01,22812.20,323,-10.80,-0.01,-0.57,10.05,12:59:17,34.046978N,-113.281830W,25077.90,7.57,15
8868028,15.03,22650.71,9,-10.83,0.06,0.03,10.05,12:59:18,34.046955N,-113.281845W,25082.30,6.86,15
8869029,15.45,22624.58,374,-10.83,-0.53,-0.20,10.05,12:59:19,34.046940N,-113.281868W,25086.70,5.66,15
8870030,15.35,22322.60,381,-10.81,-0.62,-0.46,10.16,12:59:20,34.046921N,-113.281883W,25091.10,4.78,15
8871031,15.56,22249.39,387,-10.80,-0.59,-0.47,10.14,12:59:21,34.046913N,-113.281891W,25095.50,4.21,15
8872032,15.92,22132.78,401,-10.83,-0.30,-0.53,10.15,12:59:22,34.046902N,-113.281921W,25100.00,4.78,15
8873033,16.22,22175.60,355,-10.80,-0.45,-0.45,10.22,12:59:23,34.046894N,-113.281944W,25104.50,6.18,15
8874034,16.35,22301.35,332,-10.81,-0.19,-0.18,10.20,12:59:24,34.046883N,-113.281975W,25109.10,7.73,15
8875035,16.22,22413.52,301,-10.81,0.02,-0.20,10.10,12:59:25,34.046875N,-113.282013W,25113.70,8.22,15
8876036,16.05,22477.28,297,-10.76,0.12,0.12,9.97,12:59:26,34.046867N,-113.282051W,25118.60,7.39,15
8877037,16.03,22509.46,311,-10.79,-0.22,0.02,9.94,12:59:27,34.046864N,-113.282074W,25123.40,5.72,15
8878038,16.05,22583.04,381,-10.78,-0.46,0.09,9.94,12:59:28,34.046867N,-113.282097W,25128.20,4.36,15
8879039,15.82,22633.28,319,-10.79,-0.58,-0.13,10.00,12:59:29,34.046875N,-113.282127W,25132.70,4.14,15
8880040,15.66,22661.20,351,-10.79,-0.64,-0.11,9.98,12:59:30,34.046890N,-113.282135W,25137.10,4.77,15
8881041,15.58,22692.80,342,-10.75,-0.39,0.00,10.02,12:59:31,34.046906N,-113.282150W,25141.40,5.82,15
8882042,15.51,22848.38,372,-10.80,-0.23,0.06,10.04,12:59:32,34.046925N,-113.282173W,25145.60,6.49,15
8883043,15.45,23010.79,366,-10.78,-0.60,-0.03,10.08,12:59:33,34.046940N,-113.282204W,25149.90,6.53,15
8884044,15.40,22868.40,312,-10.75,-0.04,0.08,10.07,12:59:34,34.046955N,-113.282211W,25154.00,5.72,15
8885045,15.71,22841.13,278,-10.77,0.12,-0.45,10.09,12:59:35,34.046970N,-113.282242W,25158.10,4.87,15
8886046,15.61,22848.38,335,-10.79,-0.03,-0.32,10.11,12:59:36,34.046986N,-113.282249W,25162.20,4.35,15
8887047,15.53,23027.70,360,-10.74,0.06,-0.34,10.15,12:59:37,34.047001N,-113.282265W,25166.30,4.36,15
8888048,15.44,22969.69,447,-10.72,-0.22,-0.56,10.15,12:59:38,34.047020N,-113.282265W,25170.40,5.00,15
8889049,15.40,22676.98,403,-10.73,-0.28,-0.51,10.15,12:59:39,34.047039N,-113.282280W,25174.60,5.73,15
8890050,15.85,22583.04,384,-10.74,-0.31,-0.37,10.13,12:59:40,34.047062N,-113.282288W,25178.80,6.24,15
8891051,16.10,22528.18,340,-10.69,0.00,-0.15,10.05,12:59:41,34.047081N,-113.282303W,25183.20,6.27,15
8892052,16.28,22602.04,302,-10.70,0.19,-0.13,10.00,12:59:42,34.047104N,-113.282333W,25187.50,5.78,15
8893053,16.05,22648.96,274,-10.71,0.17,-0.34,10.02,12:59:43,34.047119N,-113.282341W,25191.90,5.40,15
8894054,15.89,22689.28,336,-10.71,-0.21,-0.08,10.05,12:59:44,34.047142N,-113.282356W,25196.30,5.40,15
8895055,15.77,22733.47,335,-10.72,-0.13,-0.13,10.06,12:59:45,34.047165N,-113.282356W,25200.60,5.87,15
8896056,15.67,23014.54,394,-10.75,-0.04,-0.32,10.06,12:59:46,34.047192N,-113.282356W,25204.90,6.80,15
8897057,15.59,22570.99,400,-10.64,-0.29,-0.48,10.06,12:59:47,34.047218N,-113.282356W,25209.10,7.46,15
8898058,15.62,22626.32,341,-10.64,-0.33,-0.47,10.07,12:59:48,34.047253N,-113.282356W,25213.30,7.54,15
8899059,15.67,22669.96,332,-10.64,-0.31,-0.53,10.04,12:59:49,34.047283N,-113.282356W,25217.50,7.52,15
8900060,15.63,22710.45,322,-10.65,-0.16,-0.73,9.99,12:59:50,34.047314N,-113.282356W,25221.60,7.32,15
8901061,15.60,22735.25,297,-10.64,-0.03,-0.34,10.02,12:59:51,34.047344N,-113.282372W,25225.80,7.63,15
8902062,15.59,22756.61,336,-10.61,-0.29,-0.14,10.08,12:59:52,34.047371N,-113.282372W,25230.00,8.16,15
8903063,15.59,22772.68,371,-10.65,-0.52,-0.20,10.13,12:59:53,34.047409N,-113.282372W,25234.00,8.85,15
8904064,15.59,22787.01,367,-10.64,-0.44,-0.16,10.10,12:59:54,34.047447N,-113.282372W,25238.00,9.66,15
8905065,15.58,22799.59,335,-10.64,-0.38,-0.06,10.09,12:59:55,34.047485N,-113.282372W,25242.00,10.39,15
8906066,15.58,22808.59,335,-10.63,-0.49,-0.16,10.06,12:59:56,34.047527N,-113.282372W,25246.20,10.77,15
8907067,15.59,22824.83,319,-10.62,-0.37,-0.41,10.07,12:59:57,34.047573N,-113.282394W,25250.30,10.98,15
8908068,15.59,22830.26,332,-10.63,-0.26,-0.49,10.12,12:59:58,34.047611N,-113.282410W,25254.50,11.30,15
8909069,15.60,22841.13,321,-10.62,-0.23,-0.40,10.14,12:59:59,34.047657N,-113.282433W,25258.60,11.53,15
8910070,15.62,22850.20,307,-10.61,-0.32,-0.25,10.15,1:0:0,34.047699N,-113.282448W,25262.80,11.54,15
8911071,15.64,22857.47,325,-10.58,-0.45,-0.20,10.13,1:0:1,34.047745N,-113.282471W,25267.10,11.46,15
8912072,15.66,22855.65,419,-10.56,-0.21,-0.10,10.09,1:0:2,34.047791N,-113.282486W,25271.40,11.38,15
8913073,15.68,22824.83,411,-10.56,-0.54,-0.40,10.05,1:0:3,34.047832N,-113.282494W,25275.80,11.04,15
8914074,15.87,22607.23,400,-10.55,-0.20,-0.47,9.95,1:0:4,34.047871N,-113.282509W,25280.20,10.16,15
8915075,15.88,22758.39,364,-10.57,-0.52,-0.24,9.87,1:0:5,34.047909N,-113.282524W,25284.50,9.06,15
8916076,15.88,22788.81,317,-10.53,-0.18,-0.54,9.84,1:0:6,34.047947N,-113.282532W,25288.90,8.34,15
8917077,15.87,22806.79,377,-10.54,0.05,-0.29,9.94,1:0:7,34.047977N,-113.282532W,25293.20,7.69,15
8918078,15.96,22967.83,355,-10.50,-0.30,-0.30,10.11,1:0:8,34.048004N,-113.282532W,25297.10,7.35,15
8919079,15.95,22960.40,345,-10.50,-0.31,-0.33,10.25,1:0:9,34.048035N,-113.282532W,25300.80,7.72,15
8920080,15.90,22936.32,370,-10.46,-0.08,0.01,10.28,1:0:10,34.048065N,-113.282524W,25304.50,8.90,15
8921081,15.86,22857.47,337,-10.54,-0.74,-0.28,10.31,1:0:11,34.048103N,-113.282509W,25308.30,9.75,15
8922082,16.15,22870.23,348,-10.45,-0.39,-0.36,10.31,1:0:12,34.048145N,-113.282494W,25312.20,10.28,15
8923083,16.11,22877.53,328,-10.45,-0.04,-0.56,10.17,1:0:13,34.048187N,-113.282486W,25316.30,10.66,15
8924084,16.07,22543.55,382,-10.45,-0.27,0.01,9.96,1:0:14,34.048229N,-113.282471W,25320.70,11.12,15
8925085,16.21,22696.33,367,-10.46,-0.47,-0.08,9.81,1:0:15,34.048275N,-113.282471W,25325.30,11.53,15
8926086,16.15,22864.76,346,-10.45,-0.24,-0.27,9.84,1:0:16,34.048321N,-113.282455W,25329.90,11.90,15
8927087,16.11,22912.35,314,-10.48,0.01,-0.37,9.92,1:0:17,34.048367N,-113.282448W,25334.40,12.60,15
8928088,16.09,22906.84,331,-10.41,-0.09,-0.06,9.82,1:0:18,34.048424N,-113.282448W,25338.60,13.56,15
8929089,16.06,22903.16,353,-10.39,-0.39,-0.14,9.82,1:0:19,34.048481N,-113.282433W,25342.60,14.55,15
8930090,16.06,22897.66,346,-10.34,-0.16,-0.40,10.03,1:0:20,34.048542N,-113.282433W,25346.30,15.01,15
8931091,16.07,22905.00,356,-10.49,-0.06,-0.33,10.20,1:0:21,34.048603N,-113.282417W,25349.70,15.37,15
8932092,16.10,22550.40,428,-10.40,-0.29,-0.06,10.30,1:0:22,34.048664N,-113.282417W,25353.10,15.43,15
8933093,16.18,22289.94,372,-10.43,-0.11,-0.35,10.35,1:0:23,34.048721N,-113.282410W,25356.40,15.07,15
8934094,16.49,22436.91,357,-10.39,-0.24,-0.30,10.33,1:0:24,34.048782N,-113.282379W,25359.90,14.82,15
8935095,16.44,22552.11,333,-10.41,-0.13,0.11,10.30,1:0:25,34.048843N,-113.282372W,25363.60,14.92,15
8936096,16.41,22645.47,343,-10.36,0.05,-0.11,10.23,1:0:26,34.048901N,-113.282341W,25367.70,14.99,15
8937097,16.40,22943.72,409,-10.36,-0.17,-0.34,10.14,1:0:27,34.048958N,-113.282333W,25372.00,15.04,15
8938098,16.37,22540.13,309,-10.40,0.04,0.03,10.05,1:0:28,34.049015N,-113.282303W,25376.60,15.01,15
8939099,16.50,22257.47,11,-10.38,-0.14,0.02,10.00,1:0:29,34.049076N,-113.282280W,25381.20,15.22,15
8940100,16.58,22238.09,381,-10.37,-0.13,-0.29,9.97,1:0:30,34.049129N,-113.282249W,25385.90,14.94,15
8941101,17.01,22403.52,331,-10.36,-0.45,-0.30,9.95,1:0:31,34.049183N,-113.282211W,25390.50,14.43,15
8942102,16.88,22533.30,336,-10.35,-0.31,-0.16,9.94,1:0:32,34.049229N,-113.282188W,25395.00,14.03,15
8943103,16.78,22621.11,340,-10.38,-0.52,0.01,10.01,1:0:33,34.049274N,-113.282150W,25399.40,14.23,15
8944104,16.91,22703.38,313,-10.34,-0.36,-0.00,10.08,1:0:34,34.049320N,-113.282097W,25403.60,14.79,15
8945105,16.83,22760.17,335,-10.34,-0.33,-0.31,10.06,1:0:35,34.049370N,-113.282059W,25407.80,15.42,15
8946106,16.77,22830.26,338,-10.34,-0.45,-0.24,10.07,1:0:36,34.049427N,-113.282013W,25411.90,16.41,15
8947107,16.69,22875.70,350,-10.36,-0.61,-0.41,10.07,1:0:37,34.049484N,-113.281975W,25416.10,18.14,15
8948108,16.62,22945.57,403,-10.34,-0.30,-0.31,10.08,1:0:38,34.049553N,-113.281921W,25420.30,19.60,15
8949109,16.55,22830.26,365,-10.33,-0.28,-0.50,10.10,1:0:39,34.049622N,-113.281868W,25424.40,20.32,15
8950110,16.92,22866.58,311,-10.34,-0.62,-0.22,10.06,1:0:40,34.049698N,-113.281815W,25428.50,20.76,15
8951111,16.85,22884.84,317,-10.33,-0.21,0.00,10.09,1:0:41,34.049770N,-113.281769W,25432.50,20.97,15
8952112,16.78,22910.51,353,-10.32,-0.16,-0.27,10.11,1:0:42,34.049847N,-113.281731W,25436.60,20.99,15
8953113,16.73,23025.82,384,-10.33,-0.39,-0.18,10.11,1:0:43,34.049927N,-113.281693W,25440.80,20.59,15
8954114,16.68,23223.45,370,-10.33,-0.50,-0.14,10.11,1:0:44,34.050003N,-113.281654W,25445.00,20.64,15
8955115,16.65,23427.25,404,-10.33,-0.57,-0.19,10.13,1:0:45,34.050083N,-113.281624W,25449.30,20.94,15
8956116,16.64,23090.19,419,-10.34,-0.22,-0.18,10.16,1:0:46,34.050163N,-113.281586W,25453.60,20.89,15
8957117,16.67,22794.20,439,-10.33,-0.14,-0.38,10.12,1:0:47,34.050240N,-113.281563W,25458.00,19.99,15
8958118,16.72,22453.69,54,-10.33,-0.30,-0.40,10.02,1:0:48,34.050312N,-113.281525W,25462.30,18.93,15
8959119,16.97,22329.16,420,-10.33,-0.55,-0.23,9.96,1:0:49,34.050385N,-113.281487W,25466.70,17.70,15
8960120,17.41,22445.30,362,-10.33,-0.43,-0.41,10.02,1:0:50,34.050449N,-113.281456W,25471.10,16.03,15
8961121,17.50,22576.15,369,-10.32,-0.38,-0.33,10.05,1:0:51,34.050503N,-113.281448W,25475.40,14.18,15
8962122,17.38,22678.73,346,-10.32,-0.11,-0.40,10.01,1:0:52,34.050552N,-113.281433W,25479.60,13.03,15
8963123,17.28,22760.17,313,-10.32,-0.03,-0.52,9.98,1:0:53,34.050606N,-113.281418W,25483.80,12.64,15
8964124,17.21,22824.83,338,-10.32,-0.33,-0.35,10.02,1:0:54,34.050652N,-113.281395W,25488.00,12.32,15
8965125,17.15,22883.01,376,-10.32,-0.38,-0.07,10.01,1:0:55,34.050697N,-113.281380W,25492.20,12.12,15
8966126,17.10,23069.28,394,-10.33,-0.11,-0.35,9.98,1:0:56,34.050743N,-113.281357W,25496.20,12.20,15
8967127,17.07,23258.81,403,-10.32,-0.21,-0.42,9.98,1:0:57,34.050789N,-113.281342W,25500.20,12.40,15
8968128,17.06,22883.01,434,-10.33,-0.21,-0.45,10.06,1:0:58,34.050827N,-113.281319W,25504.10,11.90,15
8969129,17.09,22543.55,107,-10.32,-0.00,-0.27,10.15,1:0:59,34.050873N,-113.281303W,25508.00,11.19,15
8970130,17.18,22410.18,143,-10.31,-0.50,-0.03,10.21,1:1:0,34.050919N,-113.281296W,25511.80,10.98,15
8971131,17.20,22433.57,360,-10.31,-0.19,0.04,10.22,1:1:1,34.050964N,-113.281281W,25515.60,11.29,15
8972132,17.62,22570.99,352,-10.32,-0.16,-0.29,10.19,1:1:2,34.051006N,-113.281281W,25519.40,11.59,15
8973133,17.54,22678.73,358,-10.32,-0.54,-0.23,10.13,1:1:3,34.051052N,-113.281265W,25523.40,11.81,15
8974134,17.47,22760.17,342,-10.32,-0.29,0.03,10.06,1:1:4,34.051098N,-113.281258W,25527.60,12.28,15
8975135,17.42,22830.26,341,-10.32,0.03,-0.16,10.01,1:1:5,34.051147N,-113.281242W,25531.90,12.83,15
8976136,17.39,22908.67,335,-10.32,-0.32,-0.12,9.98,1:1:6,34.051197N,-113.281227W,25536.20,12.86,15
8977137,17.35,22954.83,361,-10.30,-0.45,-0.14,9.95,1:1:7,34.051247N,-113.281227W,25540.40,12.90,15
8978138,17.29,23074.97,367,-10.32,-0.52,-0.11,9.93,1:1:8,34.051304N,-113.281219W,25544.60,13.48,15
8979139,17.25,23157.34,343,-10.32,-0.56,-0.24,9.84,1:1:9,34.051357N,-113.281219W,25548.70,14.25,15
8980140,17.23,23161.21,353,-10.32,-0.42,-0.21,9.88,1:1:10,34.051418N,-113.281204W,25552.60,14.95,15
8981141,17.23,23134.22,331,-10.31,-0.21,-0.02,9.97,1:1:11,34.051476N,-113.281189W,25556.30,15.55,15
8982142,17.19,23111.20,366,-10.32,-0.14,-0.02,10.05,1:1:12,34.051540N,-113.281181W,25559.90,16.38,15
8983143,17.20,23086.38,386,-10.31,-0.58,-0.13,10.15,1:1:13,34.051605N,-113.281166W,25563.30,16.95,15
8984144,17.32,22713.98,439,-10.32,-0.10,-0.43,10.25,1:1:14,34.051674N,-113.281151W,25566.60,16.67,15
8985145,17.73,23050.33,375,-10.31,-0.17,-0.15,10.31,1:1:15,34.051743N,-113.281128W,25570.00,15.93,15
8986146,17.65,23078.77,306,-10.30,-0.42,-0.56,10.28,1:1:16,34.051804N,-113.281128W,25573.50,15.86,15
8987147,17.59,23074.97,335,-10.27,0.10,-0.48,10.24,1:1:17,34.051865N,-113.281113W,25577.20,15.94,15
8988148,17.55,22857.47,397,-10.31,-0.21,-0.24,10.15,1:1:18,34.051929N,-113.281097W,25581.10,16.15,15
8989149,17.53,23120.78,390,-10.31,-0.24,-0.34,10.01,1:1:19,34.051994N,-113.281075W,25585.10,16.21,15
8990150,17.52,23126.53,361,-10.31,0.06,-0.22,9.79,1:1:20,34.052055N,-113.281036W,25589.50,16.90,15
8991151,17.51,23101.64,429,-10.29,-0.60,-0.29,9.68,1:1:21,34.052116N,-113.281013W,25593.80,16.91,15
8992152,17.56,22729.92,164,-10.30,0.04,-0.42,9.87,1:1:22,34.052177N,-113.280975W,25597.90,16.11,15
8993153,17.95,23122.70,366,-10.29,-0.09,-0.08,9.97,1:1:23,34.052235N,-113.280937W,25601.70,14.63,15
8994154,17.88,23111.20,283,-10.26,-0.11,-0.42,10.03,1:1:24,34.052280N,-113.280907W,25605.10,13.88,15
8995155,17.83,23095.91,313,-10.30,0.08,-0.19,10.09,1:1:25,34.052330N,-113.280869W,25608.40,13.94,15
8996156,17.82,23099.73,307,-10.28,-0.19,-0.28,10.24,1:1:26,34.052376N,-113.280846W,25611.60,14.41,15
8997157,17.86,23018.30,370,-10.27,-0.36,-0.20,10.40,1:1:27,34.052429N,-113.280807W,25614.90,15.27,15
8998158,17.84,23134.22,405,-10.22,-0.33,-0.45,10.39,1:1:28,34.052486N,-113.280769W,25618.20,16.49,15
8999159,17.83,23453.84,372,-10.27,-0.17,-0.27,10.27,1:1:29,34.052544N,-113.280716W,25621.80,17.39,15
9000160,17.83,23482.64,337,-10.21,-0.29,0.24,10.08,1:1:30,34.052608N,-113.280678W,25625.60,17.15,15
9001161,17.85,23453.84,352,-10.27,-0.34,-0.12,9.83,1:1:31,34.052666N,-113.280640W,25629.70,16.45,15
9002162,17.82,23433.37,343,-10.25,-0.22,-0.59,9.82,1:1:32,34.052731N,-113.280617W,25634.00,16.51,15
9003163,17.78,23364.42,322,-10.29,-0.11,-0.71,9.96,1:1:33,34.052795N,-113.280586W,25638.10,17.20,15
9004164,17.74,23300.38,318,-10.21,-0.35,-0.38,10.07,1:1:34,34.052864N,-113.280579W,25642.00,18.15,15
9005165,17.66,23248.96,346,-10.16,-0.57,-0.48,10.17,1:1:35,34.052937N,-113.280563W,25645.70,19.38,15
9006166,17.64,23223.45,390,-10.21,-0.41,-0.33,10.17,1:1:36,34.053020N,-113.280540W,25649.40,20.83,15
9007167,17.66,23372.48,367,-10.19,-0.12,-0.18,10.16,1:1:37,34.053104N,-113.280525W,25653.10,21.55,15
9008168,17.67,23624.98,375,-10.18,-0.12,-0.06,10.17,1:1:38,34.053192N,-113.280510W,25656.90,21.03,15
9009169,17.70,23540.75,390,-10.18,-0.27,-0.30,10.14,1:1:39,34.053272N,-113.280502W,25660.80,20.14,15
