time_since_start,bme_temp,bme_alt,uv,ism_temp,acc_x,acc_y,acc_z,gps_time,latitude,longitude,gps_alt,speed,sats
6007170,-32.41,13378.01,343,0.54,-0.01,-0.00,10.18,12:11:37,33.864208N,-113.815796W,13654.40,86.87,16
6008171,-32.33,13384.92,351,0.54,-0.10,-0.53,10.14,12:11:38,33.864365N,-113.815422W,13657.80,86.46,16
6009172,-32.30,13389.92,340,0.55,0.06,-0.46,10.06,12:11:39,33.864536N,-113.815056W,13660.90,87.13,16
6010173,-32.26,13379.54,352,0.55,-0.34,-0.16,10.00,12:11:40,33.864697N,-113.814697W,13663.80,87.68,16
6011174,-31.94,13340.48,405,0.52,-0.09,-0.82,10.05,12:11:41,33.864861N,-113.814308W,13666.70,87.75,16
6012175,-31.90,13294.42,408,0.52,-0.11,-0.32,10.09,12:11:42,33.865017N,-113.813942W,13670.90,87.68,16
6013176,-31.73,13371.10,340,0.49,-0.39,-0.18,10.11,12:11:43,33.865181N,-113.813553W,13674.60,87.76,16
6014177,-31.71,13393.77,343,0.51,-0.23,-0.08,10.20,12:11:44,33.865345N,-113.813187W,13677.90,86.99,16
6015178,-31.69,13423.07,355,0.50,0.20,-0.31,10.19,12:11:45,33.865509N,-113.812813W,13680.40,85.80,16
6016179,-31.69,13426.16,325,0.47,-0.16,-0.50,9.96,12:11:46,33.865658N,-113.812439W,13684.00,85.57,16
6017180,-31.71,13427.32,356,0.48,0.23,-0.52,9.74,12:11:47,33.865810N,-113.812073W,13687.30,86.31,16
6018181,-31.71,13406.86,358,0.42,-0.11,-0.49,9.79,12:11:48,33.865963N,-113.811699W,13690.60,86.90,16
6019182,-31.32,13456.36,345,0.43,0.07,-0.25,9.96,12:11:49,33.866112N,-113.811317W,13693.90,86.97,16
6020183,-31.32,13454.03,328,0.36,-0.24,-0.22,10.14,12:11:50,33.866272N,-113.810928W,13696.80,87.81,16
6021184,-31.32,13450.54,302,0.33,-0.08,-0.34,10.23,12:11:51,33.866436N,-113.810562W,13699.60,88.41,16
6022185,-31.30,13448.22,358,0.34,-0.44,0.08,10.35,12:11:52,33.866592N,-113.810188W,13702.50,88.36,16
6023186,-31.24,13447.44,358,0.36,-0.49,-0.03,10.42,12:11:53,33.866737N,-113.809807W,13704.90,87.43,16
6024187,-31.16,13447.44,325,0.28,-0.12,-0.53,10.40,12:11:54,33.866886N,-113.809418W,13707.90,87.40,16
6025188,-31.08,13451.32,333,0.21,-0.51,-0.43,10.24,12:11:55,33.867046N,-113.809052W,13711.10,87.69,16
6026189,-31.03,13454.81,351,0.26,-0.27,-0.04,10.04,12:11:56,33.867210N,-113.808662W,13714.80,87.66,16
6027190,-31.04,13455.97,311,0.23,-0.29,-0.05,9.96,12:11:57,33.867374N,-113.808296W,13719.20,87.91,16
6028191,-31.03,13460.24,343,0.22,-0.13,-0.54,9.99,12:11:58,33.867542N,-113.807922W,13722.70,87.72,16
6029192,-30.98,13464.13,351,0.18,-0.12,-0.57,10.09,12:11:59,33.867718N,-113.807549W,13725.80,88.53,16
6030193,-30.98,13466.46,355,0.11,-0.07,0.00,10.14,12:12:0,33.867889N,-113.807167W,13728.70,87.75,16
6031194,-30.99,13467.62,328,0.15,-0.48,-0.39,10.18,12:12:1,33.868065N,-113.806808W,13732.00,86.97,16
6032195,-30.95,13472.29,351,0.07,-0.54,-0.44,10.12,12:12:2,33.868237N,-113.806450W,13735.10,87.00,16
6033196,-30.90,13490.59,350,0.08,-0.41,-0.29,10.03,12:12:3,33.868408N,-113.806084W,13739.40,86.92,16
6034197,-30.84,13492.54,350,0.05,-0.41,-0.07,10.06,12:12:4,33.868580N,-113.805710W,13743.30,86.90,16
6035198,-30.80,13534.78,384,0.02,-0.24,-0.02,10.23,12:12:5,33.868748N,-113.805336W,13747.00,87.20,16
6036199,-30.75,13468.01,335,0.01,-0.24,-0.28,10.20,12:12:6,33.868912N,-113.804970W,13750.70,87.63,16
6037200,-30.36,13475.40,366,-0.01,-0.48,0.06,10.12,12:12:7,33.869061N,-113.804581W,13753.70,86.94,16
6038201,-30.32,13480.07,319,0.00,-0.40,0.17,10.03,12:12:8,33.869213N,-113.804222W,13757.10,85.42,16
6039202,-30.31,13485.13,346,0.00,-0.25,-0.45,9.99,12:12:9,33.869366N,-113.803856W,13760.20,84.14,16
6040203,-30.30,13513.63,328,-0.02,-0.43,-0.27,9.93,12:12:10,33.869522N,-113.803497W,13763.80,83.16,16
6041204,-30.31,13532.04,314,-0.01,-0.28,-0.35,9.89,12:12:11,33.869686N,-113.803146W,13766.10,82.18,16
6042205,-30.27,13528.12,357,-0.02,-0.42,0.04,9.88,12:12:12,33.869846N,-113.802788W,13769.00,81.19,16
6043206,-30.23,13525.37,319,-0.05,-0.50,-0.21,9.99,12:12:14,33.870167N,-113.802124W,13775.10,80.87,16
6044207,-30.20,13523.81,314,-0.05,-0.45,-0.23,10.16,12:12:15,33.870316N,-113.801781W,13777.40,80.65,16
6045208,-30.11,13522.63,352,-0.11,-0.19,0.00,10.27,12:12:16,33.870468N,-113.801445W,13780.70,80.33,16
6046209,-30.06,13523.03,272,-0.09,-0.56,-0.12,10.27,12:12:17,33.870613N,-113.801102W,13784.90,79.87,16
6047210,-29.96,13522.63,336,-0.14,0.04,-0.22,10.20,12:12:17,33.870613N,-113.801102W,13784.90,79.83,16
6048211,-29.92,13524.20,312,-0.19,-0.01,-0.22,10.30,12:12:19,33.870911N,-113.800407W,13791.20,80.95,16
6049212,-29.87,13526.55,337,-0.21,-0.49,-0.33,10.34,12:12:19,33.870911N,-113.800407W,13791.20,81.32,16
6050213,-29.82,13528.90,322,-0.20,-0.51,-0.32,10.26,12:12:21,33.871216N,-113.799690W,13800.20,81.74,16
6051214,-29.77,13532.82,340,-0.24,-0.43,-0.30,10.13,12:12:22,33.871353N,-113.799332W,13804.30,81.64,16
6052215,-29.70,13535.57,384,-0.30,-0.21,-0.22,10.08,12:12:23,33.871494N,-113.798973W,13808.20,82.25,16
6053216,-29.65,13538.32,342,-0.30,-0.57,0.05,10.07,12:12:24,33.871628N,-113.798615W,13813.20,82.31,16
6054217,-29.60,13540.67,352,-0.30,-0.40,-0.06,10.06,12:12:24,33.871628N,-113.798615W,13813.20,80.80,16
6055218,-29.54,13543.42,287,-0.31,0.11,-0.30,10.14,12:12:26,33.871887N,-113.797913W,13821.60,80.83,16
6056219,-29.48,13521.46,23,-0.37,-0.11,0.19,10.09,12:12:27,33.872025N,-113.797554W,13826.20,81.43,16
6057220,-29.08,13485.91,394,-0.37,-0.07,-0.21,10.09,12:12:27,33.872025N,-113.797554W,13826.20,82.01,16
6058221,-29.10,13470.73,362,-0.42,0.22,-0.08,10.08,12:12:29,33.872307N,-113.796829W,13835.90,82.80,16
6059222,-29.13,13515.20,327,-0.42,-0.26,-0.21,10.24,12:12:30,33.872448N,-113.796455W,13840.00,83.91,16
6060223,-29.17,13533.22,343,-0.43,0.24,-0.21,10.38,12:12:31,33.872597N,-113.796112W,13843.90,83.63,16
6061224,-29.23,13548.13,322,-0.49,0.16,-0.00,10.31,12:12:32,33.872730N,-113.795738W,13848.70,82.18,16
6062225,-29.35,13558.75,317,-0.50,-0.62,-0.42,10.16,12:12:33,33.872864N,-113.795380W,13853.50,81.47,16
6063226,-29.38,13569.39,372,-0.50,-0.43,-0.97,10.22,12:12:34,33.872997N,-113.795021W,13858.10,81.47,16
6064227,-29.37,13577.28,322,-0.52,-0.17,-0.48,10.16,12:12:34,33.872997N,-113.795021W,13858.10,81.47,16
6065228,-29.39,13583.59,370,-0.52,-0.42,-0.58,10.16,12:12:36,33.873260N,-113.794304W,13869.20,81.72,16
6066229,-29.35,13589.12,387,-0.51,-0.10,-0.84,10.07,12:12:37,33.873379N,-113.793930W,13874.70,83.17,16
6067230,-29.30,13537.92,367,-0.55,-0.15,-0.46,9.81,12:12:38,33.873508N,-113.793564W,13879.50,83.61,16
6068231,-28.91,13595.45,374,-0.54,0.10,-0.72,9.96,12:12:39,33.873619N,-113.793190W,13885.50,82.45,16
6069232,-28.99,13606.14,304,-0.56,-0.08,-0.05,10.07,12:12:40,33.873737N,-113.792816W,13890.50,80.52,16
6070233,-29.09,13609.31,280,-0.59,0.30,-0.63,10.11,12:12:41,33.873852N,-113.792473W,13894.50,79.71,16
6071234,-29.14,13610.89,311,-0.55,-0.11,0.48,10.28,12:12:42,33.873966N,-113.792114W,13899.30,79.66,16
6072235,-29.01,13598.22,326,-0.60,-0.82,-0.16,10.26,12:12:43,33.874100N,-113.791756W,13905.10,79.21,16
6073236,-29.06,13599.41,371,-0.61,0.05,-0.08,10.16,12:12:44,33.874233N,-113.791397W,13909.90,80.08,16
6074237,-29.12,13594.66,381,-0.66,0.17,-0.09,9.89,12:12:45,33.874374N,-113.791039W,13914.70,81.10,16
6075238,-29.20,13629.95,351,-0.69,0.07,-0.52,9.76,12:12:46,33.874508N,-113.790710W,13919.70,80.79,16
6076239,-29.24,13663.02,332,-0.70,0.08,-1.01,10.05,12:12:47,33.874653N,-113.790359W,13925.00,78.64,16
6077240,-29.24,13679.81,321,-0.73,0.18,-0.31,10.28,12:12:48,33.874783N,-113.790039W,13929.60,76.67,16
6078241,-29.22,13675.00,312,-0.73,-0.38,-0.37,10.26,12:12:49,33.874916N,-113.789719W,13933.70,74.93,16
6079242,-29.21,13673.41,321,-0.77,0.15,-0.44,10.17,12:12:50,33.875046N,-113.789398W,13938.60,74.12,16
6080243,-29.22,13673.01,348,-0.78,0.24,-0.64,10.13,12:12:51,33.875179N,-113.789070W,13943.80,74.57,16
6081244,-29.23,13681.81,356,-0.79,0.38,0.35,10.20,12:12:52,33.875317N,-113.788727W,13948.70,76.35,16
6082245,-29.24,13688.62,338,-0.79,-0.52,-0.20,10.27,12:12:53,33.875454N,-113.788391W,13953.40,77.97,16
6083246,-29.25,13689.82,304,-0.86,0.42,-0.74,10.16,12:12:54,33.875587N,-113.788048W,13958.50,78.21,16
6084247,-29.26,13688.62,341,-0.86,0.54,0.10,10.08,12:12:55,33.875721N,-113.787727W,13964.10,76.71,16
6085248,-29.24,13689.82,287,-0.86,-0.89,-0.38,10.28,12:12:56,33.875843N,-113.787415W,13968.40,74.01,16
6086249,-29.16,13692.22,282,-0.93,-0.01,-0.29,10.42,12:12:57,33.875973N,-113.787109W,13974.20,71.39,16
6087250,-29.21,13697.04,302,-0.93,0.06,-0.79,10.23,12:12:58,33.876106N,-113.786819W,13980.30,69.37,16
6088251,-29.27,13700.65,350,-0.95,0.02,-0.56,10.12,12:12:59,33.876232N,-113.786522W,13986.10,69.00,16
6089252,-29.32,13641.88,400,-0.96,0.69,-0.28,10.11,12:13:0,33.876350N,-113.786201W,13991.90,70.13,16
6090253,-29.05,13685.01,325,-1.00,-0.61,-0.43,9.88,12:13:1,33.876469N,-113.785866W,13998.40,72.39,16
6091254,-29.12,13694.63,309,-1.04,0.25,0.13,10.20,12:13:2,33.876595N,-113.785545W,14003.60,73.33,16
6092255,-29.18,13705.07,304,-0.97,-0.92,0.38,10.08,12:13:3,33.876698N,-113.785240W,14008.80,72.77,16
6093256,-29.17,13673.80,314,-1.03,-0.78,-0.68,10.28,12:13:4,33.876823N,-113.784935W,14016.00,71.21,16
6094257,-29.13,13681.81,336,-1.04,-0.25,0.03,10.46,12:13:5,33.876945N,-113.784630W,14022.40,69.15,16
6095258,-28.99,13694.63,353,-1.05,0.22,-0.30,9.87,12:13:6,33.877064N,-113.784355W,14028.50,67.85,16
6096259,-29.00,13673.41,366,-1.05,0.84,-0.32,9.27,12:13:7,33.877186N,-113.784050W,14035.20,67.94,16
6097260,-28.74,13650.25,18,-1.09,0.54,-0.23,9.88,12:13:8,33.877304N,-113.783730W,14041.00,69.49,16
6098261,-28.51,13647.46,325,-1.09,-1.08,-0.75,9.95,12:13:9,33.877438N,-113.783424W,14045.40,71.58,16
6099262,-28.76,13668.61,19,-1.14,-1.03,-0.96,9.86,12:13:10,33.877567N,-113.783104W,14049.50,73.12,16
6100263,-28.96,13694.63,345,-1.17,-0.30,0.00,10.00,12:13:11,33.877701N,-113.782784W,14054.40,73.79,16
6101264,-29.12,13716.72,352,-1.16,-0.32,-0.14,10.25,12:13:12,33.877834N,-113.782478W,14059.60,73.81,16
6102265,-29.24,13753.02,369,-1.17,-0.95,-0.44,10.21,12:13:13,33.877979N,-113.782173W,14064.50,73.30,16
6103266,-29.29,13761.11,376,-1.18,-0.40,-1.07,10.13,12:13:14,33.878109N,-113.781853W,14069.20,73.31,16
6104267,-29.35,13774.48,364,-1.24,-1.15,0.08,10.29,12:13:15,33.878239N,-113.781532W,14073.50,73.74,16
6105268,-29.38,13784.22,326,-1.29,-0.77,-0.23,10.39,12:13:16,33.878372N,-113.781181W,14078.30,74.99,16
6106269,-29.39,13802.11,313,-1.32,-0.20,-1.38,10.33,12:13:17,33.878494N,-113.780853W,14082.80,75.80,16
6107270,-29.45,13785.44,20,-1.30,-0.71,-0.44,10.18,12:13:18,33.878609N,-113.780518W,14088.80,75.18,16
6108271,-29.52,13751.40,19,-1.36,-0.42,-0.59,10.31,12:13:19,33.878723N,-113.780197W,14094.70,74.12,16
6109272,-29.35,13707.88,394,-1.35,-0.77,-0.45,10.66,12:13:20,33.878845N,-113.779907W,14099.90,71.65,16
6110273,-29.39,13674.60,397,-1.42,-0.44,0.12,10.37,12:13:21,33.878971N,-113.779594W,14106.60,70.02,16
6111274,-29.39,13649.85,380,-1.37,0.62,0.11,10.28,12:13:22,33.879086N,-113.779289W,14113.50,69.95,16
6112275,-29.14,13637.90,361,-1.40,0.34,0.67,10.18,12:13:23,33.879200N,-113.778969W,14120.00,71.17,16
6113276,-29.19,13673.41,19,-1.48,-0.61,-0.57,10.18,12:13:24,33.879314N,-113.778633W,14127.00,72.97,16
6114277,-29.27,13717.12,316,-1.48,-0.21,0.18,10.15,12:13:25,33.879429N,-113.778305W,14134.30,74.02,16
6115278,-29.35,13749.38,286,-1.51,-0.45,0.15,9.93,12:13:26,33.879536N,-113.777985W,14141.00,74.26,16
6116279,-29.38,13776.11,303,-1.51,0.14,0.48,10.28,12:13:27,33.879650N,-113.777679W,14147.10,72.58,16
6117280,-29.43,13813.11,365,-1.54,-0.55,-1.07,10.46,12:13:28,33.879780N,-113.777367W,14154.50,69.81,16
6118281,-29.50,13772.46,21,-1.55,0.09,0.07,10.38,12:13:29,33.879902N,-113.777061W,14162.00,68.17,16
6119282,-29.16,13831.49,333,-1.54,-0.84,0.34,10.10,12:13:30,33.880020N,-113.776772W,14169.00,68.38,16
6120283,-29.27,13849.49,319,-1.54,-0.74,-0.73,10.03,12:13:31,33.880146N,-113.776459W,14176.10,69.67,16
6121284,-29.38,13870.01,375,-1.56,0.07,-0.92,10.28,12:13:32,33.880264N,-113.776131W,14183.40,72.58,16
6122285,-29.46,13900.08,343,-1.56,-0.55,0.36,10.35,12:13:33,33.880371N,-113.775772W,14190.40,75.25,16
6123286,-29.54,13914.54,358,-1.55,0.16,-0.35,10.07,12:13:34,33.880489N,-113.775421W,14197.80,78.06,16
6124287,-29.62,13912.06,21,-1.59,-0.88,-1.31,10.00,12:13:35,33.880596N,-113.775078W,14205.60,77.07,16
6125288,-29.70,13909.99,360,-1.58,-1.08,-0.05,10.10,12:13:36,33.880695N,-113.774757W,14213.70,74.77,16
6126289,-29.57,13880.30,235,-1.63,0.20,-0.50,10.22,12:13:37,33.880795N,-113.774437W,14221.30,72.05,16
6127290,-29.26,13832.71,343,-1.66,-0.60,0.33,10.17,12:13:38,33.880898N,-113.774117W,14229.60,70.44,16
6128291,-29.38,13861.39,332,-1.61,-0.09,-0.61,10.16,12:13:39,33.881004N,-113.773796W,14237.40,70.46,16
6129292,-29.51,13819.23,314,-1.66,-0.21,-0.11,10.05,12:13:40,33.881107N,-113.773476W,14245.40,70.46,16
6130293,-29.59,13824.54,347,-1.67,0.36,-0.35,10.27,12:13:41,33.881195N,-113.773132W,14253.50,75.76,16
6131294,-29.30,13861.80,346,-1.68,-0.30,-1.14,9.74,12:13:42,33.881294N,-113.772789W,14261.00,75.31,16
6132295,-29.46,13862.21,292,-1.77,-1.24,-0.47,9.55,12:13:43,33.881390N,-113.772438W,14269.10,74.54,16
6133296,-29.23,13892.65,394,-1.79,-0.61,0.53,9.81,12:13:44,33.881462N,-113.772110W,14275.50,72.75,16
6134297,-29.42,13916.61,367,-1.83,-0.95,-0.40,10.07,12:13:45,33.881542N,-113.771774W,14282.70,72.09,16
6135298,-29.59,13963.50,355,-1.89,-0.57,-0.03,9.93,12:13:46,33.881618N,-113.771431W,14289.90,70.67,16
6136299,-29.74,14005.27,335,-1.82,-0.69,-0.42,9.79,12:13:47,33.881695N,-113.771095W,14296.60,71.27,16
6137300,-29.89,14009.04,353,-1.86,-0.64,-0.30,9.85,12:13:48,33.881767N,-113.770767W,14303.10,71.27,16
6138301,-30.05,14014.49,346,-1.94,-0.85,-0.04,9.39,12:13:49,33.881844N,-113.770416W,14309.60,74.20,16
6139302,-30.32,14019.10,287,-1.97,0.28,0.19,9.09,12:13:50,33.881920N,-113.770073W,14315.30,74.20,16
6140303,-30.52,14020.36,287,-2.02,0.78,0.84,9.52,12:13:51,33.882008N,-113.769753W,14320.10,70.57,16
6141304,-30.63,14023.30,258,-1.96,-0.39,0.73,10.10,12:13:52,33.882088N,-113.769447W,14324.40,68.97,16
6142305,-30.69,14009.46,311,-2.01,0.02,-0.09,10.50,12:13:53,33.882183N,-113.769127W,14328.80,67.43,16
6143306,-30.45,14016.16,317,-2.02,0.15,-0.43,10.55,12:13:54,33.882286N,-113.768829W,14332.90,66.36,16
6144307,-30.53,14001.08,346,-2.05,0.15,-0.48,10.11,12:13:55,33.882381N,-113.768524W,14338.30,68.50,16
6145308,-30.36,14071.75,365,-2.07,-0.86,0.12,9.89,12:13:56,33.882473N,-113.768204W,14343.30,72.03,16
6146309,-30.43,14099.29,357,-2.06,-0.91,0.21,9.51,12:13:57,33.882576N,-113.767860W,14347.80,72.03,16
6147310,-30.46,14120.96,333,-2.06,0.00,-0.65,9.41,12:13:58,33.882664N,-113.767525W,14352.30,73.61,16
6148311,-30.48,14107.35,327,-2.07,0.99,-1.08,9.72,12:13:59,33.882748N,-113.767197W,14355.70,72.08,16
6149312,-30.49,14094.20,292,-2.08,0.07,0.58,10.11,12:14:0,33.882828N,-113.766876W,14358.00,70.60,16
6150313,-30.50,14085.72,327,-2.07,-0.09,-0.74,10.45,12:14:1,33.882908N,-113.766541W,14360.90,69.28,16
6151314,-30.50,14080.21,358,-2.08,0.28,-0.62,10.46,12:14:2,33.882992N,-113.766220W,14364.50,68.08,16
6152315,-30.49,14079.37,351,-2.07,-0.32,0.00,10.26,12:14:3,33.883080N,-113.765915W,14368.70,69.44,16
6153316,-30.44,14126.08,351,-2.08,-0.42,0.27,10.42,12:14:4,33.883167N,-113.765579W,14372.60,71.98,16
6154317,-30.38,14105.66,355,-2.09,0.08,-0.02,10.40,12:14:5,33.883247N,-113.765236W,14375.70,74.07,16
6155318,-30.34,14087.41,337,-2.12,-0.57,-0.70,10.11,12:14:6,33.883331N,-113.764893W,14379.80,74.12,16
6156319,-30.30,14067.95,278,-2.14,-1.40,-0.04,9.93,12:14:7,33.883419N,-113.764557W,14384.30,73.71,16
6157320,-29.99,14070.91,345,-2.12,-0.21,-0.11,9.86,12:14:8,33.883514N,-113.764236W,14388.40,73.05,16
6158321,-30.00,14076.41,309,-2.19,-0.38,-0.13,9.80,12:14:9,33.883602N,-113.763901W,14392.70,72.42,16
6159322,-30.00,14081.48,348,-2.19,-0.63,-0.53,9.71,12:14:10,33.883705N,-113.763557W,14396.50,73.08,16
6160323,-29.97,14086.14,336,-2.26,-0.67,-0.53,9.83,12:14:11,33.883797N,-113.763229W,14399.50,72.74,16
6161324,-29.93,14090.38,311,-2.24,-0.61,-0.89,10.16,12:14:12,33.883896N,-113.762878W,14402.70,76.47,16
6162325,-29.86,14092.92,313,-2.22,-0.46,-0.25,10.33,12:14:13,33.883991N,-113.762520W,14406.00,76.73,16
6163326,-29.78,14037.59,318,-2.29,-1.02,-0.63,10.36,12:14:14,33.884075N,-113.762177W,14409.90,76.15,16
6164327,-29.53,14076.41,345,-2.30,-0.27,-0.74,10.32,12:14:15,33.884171N,-113.761833W,14413.80,74.85,16
6165328,-29.54,14085.29,330,-2.33,-0.38,-0.50,10.22,12:14:16,33.884270N,-113.761482W,14417.10,72.34,16
6166329,-29.55,14082.75,286,-2.37,-0.55,-0.38,10.12,12:14:17,33.884354N,-113.761162W,14420.80,70.96,16
6167330,-29.30,14093.35,292,-2.39,-0.15,-0.22,9.91,12:14:18,33.884453N,-113.760841W,14424.20,71.03,16
6168331,-29.32,14080.21,326,-2.42,0.21,0.12,9.84,12:14:19,33.884552N,-113.760513W,14428.80,72.70,16
6169332,-29.03,14076.83,306,-2.45,0.33,0.13,10.13,12:14:20,33.884651N,-113.760178W,14432.10,73.66,16
6170333,-28.82,14088.68,309,-2.46,-0.59,0.13,10.36,12:14:21,33.884769N,-113.759857W,14435.60,73.94,16
6171334,-28.82,14100.56,346,-2.49,-0.79,-0.04,10.44,12:14:22,33.884876N,-113.759529W,14439.60,73.95,16
6172335,-28.92,14108.63,309,-2.53,-0.60,-0.04,10.45,12:14:23,33.884991N,-113.759193W,14443.00,72.98,16
6173336,-29.00,14117.99,340,-2.54,-0.56,-0.12,10.45,12:14:24,33.885109N,-113.758873W,14447.30,71.12,16
6174337,-29.03,14140.15,376,-2.54,-0.16,-0.53,10.32,12:14:25,33.885227N,-113.758568W,14452.40,69.39,16
6175338,-29.05,14176.09,356,-2.55,-0.33,-0.27,10.03,12:14:26,33.885338N,-113.758263W,14456.40,69.39,16
6176339,-29.06,14170.95,318,-2.59,-0.65,-0.85,9.87,12:14:27,33.885448N,-113.757950W,14461.20,69.89,16
6177340,-29.07,14169.66,292,-2.59,0.01,-0.41,9.77,12:14:28,33.885555N,-113.757645W,14465.90,70.50,16
6178341,-29.07,14155.10,316,-2.58,-0.73,-1.12,9.96,12:14:29,33.885677N,-113.757324W,14471.10,70.08,16
6179342,-29.11,14157.24,333,-2.59,0.33,0.04,10.03,12:14:30,33.885803N,-113.757027W,14475.60,69.08,16
6180343,-29.12,14100.98,21,-2.59,-0.30,-0.75,10.19,12:14:31,33.885925N,-113.756737W,14479.70,67.66,16
6181344,-28.73,14074.29,381,-2.59,0.21,-0.49,10.28,12:14:32,33.886047N,-113.756439W,14483.70,65.47,16
6182345,-28.82,14158.10,350,-2.61,-0.08,-0.39,10.02,12:14:33,33.886166N,-113.756172W,14488.20,63.83,16
6183346,-28.86,14202.31,343,-2.60,-0.69,-0.22,10.05,12:14:34,33.886288N,-113.755890W,14492.20,63.85,16
6184347,-28.85,14146.55,19,-2.59,0.19,0.20,10.09,12:14:35,33.886395N,-113.755608W,14495.60,64.55,16
6185348,-28.81,14146.13,299,-2.64,-0.26,0.10,10.05,12:14:36,33.886497N,-113.755325W,14500.70,63.26,16
6186349,-28.55,14157.67,282,-2.67,0.03,0.36,10.25,12:14:37,33.886608N,-113.755043W,14505.20,64.32,16
6187350,-28.61,14169.23,350,-2.69,0.43,0.14,10.29,12:14:38,33.886719N,-113.754776W,14509.20,63.39,16
6188351,-28.65,14180.39,346,-2.71,-0.15,0.60,10.25,12:14:39,33.886837N,-113.754509W,14514.90,62.26,16
6189352,-28.68,14219.56,358,-2.78,-0.26,-0.45,10.36,12:14:40,33.886948N,-113.754242W,14519.60,61.13,16
6190353,-28.70,14261.99,336,-2.74,-0.54,-0.11,10.12,12:14:41,33.887054N,-113.753975W,14524.70,61.13,16
6191354,-28.68,14285.04,331,-2.80,-0.44,-0.20,9.86,12:14:42,33.887161N,-113.753700W,14529.90,61.95,16
6192355,-28.66,14288.09,331,-2.77,-0.32,0.18,9.52,12:14:43,33.887272N,-113.753418W,14534.80,63.97,16
6193356,-28.63,14275.90,346,-2.79,-0.27,-0.45,9.69,12:14:44,33.887375N,-113.753136W,14539.70,66.14,16
6194357,-28.66,14285.04,330,-2.80,-0.59,-0.66,9.71,12:14:45,33.887489N,-113.752846W,14543.60,68.09,16
6195358,-28.71,14293.33,341,-2.87,-0.27,-0.16,9.74,12:14:46,33.887608N,-113.752548W,14546.90,68.65,16
6196359,-28.71,14282.00,356,-2.87,0.25,-0.24,9.83,12:14:47,33.887726N,-113.752243W,14550.50,68.16,16
6197360,-28.71,14328.75,365,-2.87,-0.21,-0.50,9.82,12:14:48,33.887844N,-113.751945W,14553.00,67.76,16
6198361,-28.67,14254.61,370,-2.89,-0.17,-0.32,9.95,12:14:49,33.887955N,-113.751656W,14555.80,67.00,16
6199362,-28.24,14236.42,340,-2.89,0.21,-0.54,10.16,12:14:50,33.888065N,-113.751358W,14558.90,66.23,16
6200363,-27.96,14229.93,318,-2.96,0.03,-0.26,10.32,12:14:51,33.888172N,-113.751076W,14562.10,66.23,16
6201364,-27.78,14234.25,355,-2.96,-0.07,0.24,10.36,12:14:52,33.888283N,-113.750786W,14564.90,67.01,16
6202365,-27.86,14238.15,307,-2.99,-0.03,-0.57,10.50,12:14:53,33.888397N,-113.750488W,14567.90,68.13,16
6203366,-27.89,14242.04,316,-2.99,-0.34,-0.18,10.54,12:14:54,33.888508N,-113.750183W,14570.40,68.40,16
6204367,-27.89,14245.51,332,-2.99,-0.17,0.12,10.57,12:14:55,33.888622N,-113.749886W,14574.70,67.87,16
6205368,-27.89,14250.28,331,-3.05,-0.11,0.28,10.54,12:14:56,33.888744N,-113.749596W,14578.70,67.11,16
6206369,-27.87,14255.48,381,-3.07,-0.82,-0.16,10.49,12:14:57,33.888859N,-113.749313W,14583.20,66.38,16
6207370,-27.84,14301.62,351,-3.09,-0.25,0.28,10.48,12:14:58,33.888962N,-113.749008W,14588.40,65.73,16
6208371,-27.84,14286.79,327,-3.09,-0.61,-0.17,10.38,12:14:59,33.889061N,-113.748711W,14593.80,65.65,16
6209372,-27.83,14275.03,351,-3.10,-0.81,-0.19,10.37,12:15:0,33.889160N,-113.748413W,14599.90,66.30,16
6210373,-27.83,14255.05,323,-3.12,-0.35,-0.13,10.38,12:15:1,33.889275N,-113.748123W,14606.70,65.65,16
6211374,-27.51,14265.90,306,-3.12,-0.37,-0.13,10.46,12:15:2,33.889385N,-113.747841W,14613.20,66.95,16
6212375,-27.59,14274.16,348,-3.11,-0.60,-0.45,10.25,12:15:3,33.889496N,-113.747543W,14620.30,67.36,16
6213376,-27.67,14284.61,307,-3.12,-0.55,-0.21,10.34,12:15:4,33.889614N,-113.747253W,14626.80,67.76,16
6214377,-27.73,14309.49,326,-3.14,-0.64,-0.15,10.05,12:15:5,33.889740N,-113.746956W,14634.30,68.47,16
6215378,-27.80,14276.34,319,-3.17,-0.58,-0.22,10.25,12:15:6,33.889862N,-113.746651W,14642.00,68.97,16
6216379,-27.85,14273.29,283,-3.18,-0.27,-0.11,10.00,12:15:7,33.889984N,-113.746346W,14649.30,70.44,16
6217380,-27.64,14289.40,282,-3.21,0.16,-0.65,10.19,12:15:8,33.890114N,-113.746048W,14656.80,70.77,16
6218381,-27.77,14301.62,303,-3.21,0.09,0.31,10.27,12:15:9,33.890251N,-113.745743W,14665.10,69.82,16
6219382,-27.89,14316.05,342,-3.28,0.46,-0.27,10.09,12:15:10,33.890392N,-113.745461W,14672.50,68.38,16
6220383,-27.97,14387.30,382,-3.22,0.39,-0.05,10.19,12:15:11,33.890533N,-113.745178W,14679.30,67.60,16
6221384,-28.03,14404.56,366,-3.31,0.50,0.63,10.33,12:15:12,33.890659N,-113.744881W,14687.00,66.98,16
6222385,-28.05,14370.08,308,-3.30,-0.63,-0.11,10.14,12:15:13,33.890785N,-113.744598W,14695.20,66.76,16
6223386,-27.71,14370.96,294,-3.39,-0.07,-0.34,10.18,12:15:14,33.890907N,-113.744324W,14702.80,68.09,16
6224387,-27.85,14378.02,317,-3.33,-0.53,-0.52,10.29,12:15:15,33.891045N,-113.744011W,14711.60,70.99,16
6225388,-28.00,14373.17,18,-3.38,0.07,-0.01,10.15,12:15:16,33.891178N,-113.743706W,14719.50,73.00,16
6226389,-28.15,14379.35,326,-3.35,-0.73,0.48,10.06,12:15:17,33.891308N,-113.743401W,14727.30,73.08,16
6227390,-28.27,14398.80,357,-3.39,0.15,0.00,10.16,12:15:18,33.891460N,-113.743088W,14735.40,73.83,16
6228391,-28.34,14338.40,382,-3.45,0.43,-0.23,10.11,12:15:19,33.891605N,-113.742783W,14744.20,74.19,16
6229392,-28.11,14359.06,314,-3.54,-0.99,-1.26,10.07,12:15:20,33.891747N,-113.742477W,14752.50,73.47,16
6230393,-28.27,14377.58,332,-3.50,0.55,-0.77,10.03,12:15:21,33.891888N,-113.742172W,14760.60,73.39,16
6231394,-28.38,14390.83,318,-3.50,-0.06,0.36,9.92,12:15:22,33.892036N,-113.741852W,14768.50,73.99,16
6232395,-28.46,14404.12,313,-3.53,-0.14,-0.55,10.16,12:15:23,33.892178N,-113.741539W,14777.10,74.92,16
6233396,-28.52,14415.65,338,-3.56,-0.80,-0.10,10.04,12:15:24,33.892326N,-113.741226W,14785.80,74.86,16
6234397,-28.58,14429.42,352,-3.57,0.01,-0.59,10.08,12:15:25,33.892494N,-113.740913W,14794.20,74.85,16
6235398,-28.65,14441.44,340,-3.56,-0.26,-0.55,9.93,12:15:26,33.892654N,-113.740608W,14801.80,75.40,16
6236399,-28.77,14448.12,385,-3.59,0.15,0.43,9.91,12:15:27,33.892815N,-113.740303W,14809.80,76.15,16
6237400,-28.87,14425.86,340,-3.60,0.04,-0.32,9.91,12:15:28,33.892971N,-113.739983W,14818.00,76.10,16
6238401,-28.58,14402.34,347,-3.61,-0.77,-0.29,9.78,12:15:29,33.893135N,-113.739670W,14825.90,75.72,16
6239402,-28.37,14359.94,343,-3.62,-1.02,-0.55,9.92,12:15:30,33.893303N,-113.739365W,14833.90,76.28,16
6240403,-28.28,14395.26,301,-3.62,-0.14,-0.85,9.97,12:15:31,33.893459N,-113.739044W,14840.80,77.01,16
6241404,-28.55,14426.75,318,-3.62,-0.31,-0.39,9.92,12:15:32,33.893627N,-113.738724W,14848.00,77.05,16
6242405,-28.74,14448.57,301,-3.65,0.03,0.82,10.14,12:15:33,33.893791N,-113.738419W,14855.00,77.63,16
6243406,-28.88,14466.43,345,-3.65,-0.16,0.18,9.99,12:15:34,33.893959N,-113.738098W,14861.20,79.57,16
6244407,-29.01,14482.09,319,-3.64,0.23,-0.71,10.09,12:15:35,33.894123N,-113.737770W,14868.30,81.16,16
6245408,-29.13,14424.97,392,-3.67,-0.03,-0.13,9.52,12:15:36,33.894283N,-113.737419W,14875.10,81.57,16
6246409,-29.18,14502.28,403,-3.65,-0.10,-0.80,9.35,12:15:37,33.894451N,-113.737076W,14881.00,81.51,16
6247410,-29.28,14500.04,396,-3.70,0.23,-0.43,9.50,12:15:38,33.894608N,-113.736732W,14887.00,82.22,16
6248411,-29.35,14578.64,372,-3.69,-0.48,0.60,9.67,12:15:39,33.894756N,-113.736374W,14891.60,82.70,16
6249412,-29.43,14624.21,347,-3.76,-0.28,-0.09,9.87,12:15:40,33.894901N,-113.736015W,14895.40,80.72,16
6250413,-29.52,14610.97,346,-3.77,-0.64,-1.03,10.11,12:15:41,33.895035N,-113.735664W,14899.80,80.14,16
6251414,-29.57,14547.36,34,-3.74,-0.55,-0.06,10.35,12:15:42,33.895168N,-113.735306W,14903.60,80.18,16
6252415,-29.57,14484.78,23,-3.79,0.36,-0.01,10.21,12:15:43,33.895302N,-113.734962W,14907.90,79.44,16
6253416,-29.25,14546.91,387,-3.84,0.20,-0.40,10.08,12:15:44,33.895435N,-113.734627W,14912.20,77.09,16
6254417,-29.32,14479.40,364,-3.89,-0.64,-0.65,9.86,12:15:45,33.895569N,-113.734299W,14915.40,75.93,16
6255418,-29.31,14465.98,233,-3.94,-0.05,-0.33,10.16,12:15:46,33.895702N,-113.733963W,14920.10,75.22,16
6256419,-28.94,14507.23,326,-3.92,-0.75,0.03,10.28,12:15:47,33.895828N,-113.733643W,14924.70,74.06,16
6257420,-29.03,14526.59,306,-3.93,0.10,-0.07,10.29,12:15:48,33.895966N,-113.733337W,14928.60,72.77,16
6258421,-29.13,14541.04,314,-3.94,0.39,0.07,10.12,12:15:49,33.896091N,-113.733017W,14932.80,73.84,16
6259422,-29.20,14542.39,340,-4.02,-0.56,0.15,9.91,12:15:50,33.896217N,-113.732697W,14937.10,76.01,16
6260423,-29.24,14556.41,293,-4.00,-0.90,-0.05,9.79,12:15:51,33.896362N,-113.732353W,14941.50,76.39,16
6261424,-29.28,14566.84,304,-4.05,-0.33,-0.02,9.64,12:15:52,33.896500N,-113.732033W,14944.70,77.43,16
6262425,-29.29,14505.88,361,-4.09,-0.89,-0.85,9.51,12:15:53,33.896641N,-113.731697W,14948.50,78.62,16
6263426,-29.23,14554.15,331,-4.05,-0.61,-0.15,9.70,12:15:54,33.896782N,-113.731339W,14952.40,79.61,16
6264427,-29.23,14566.84,350,-4.07,-0.73,-0.65,9.99,12:15:55,33.896927N,-113.731010W,14955.40,79.28,16
6265428,-29.21,14575.91,350,-4.11,-0.57,-0.01,10.22,12:15:56,33.897068N,-113.730675W,14957.50,78.39,16
6266429,-29.14,14565.02,50,-4.11,-0.61,0.35,10.30,12:15:57,33.897205N,-113.730331W,14960.40,78.44,16
6267430,-28.77,14627.87,337,-4.12,-0.18,-0.16,10.36,12:15:58,33.897354N,-113.729980W,14962.80,78.86,16
6268431,-28.79,14671.47,343,-4.13,-0.52,0.36,10.33,12:15:59,33.897499N,-113.729652W,14965.90,78.36,16
6269432,-28.81,14696.38,337,-4.12,0.06,-0.44,10.27,12:16:0,33.897636N,-113.729309W,14969.00,78.24,16
6270433,-28.80,14681.15,338,-4.14,-0.28,-0.41,10.16,12:16:1,33.897770N,-113.728973W,14971.90,77.92,16
6271434,-28.82,14667.33,323,-4.14,-0.56,-0.61,10.06,12:16:2,33.897911N,-113.728638W,14975.80,77.91,16
6272435,-28.81,14655.84,340,-4.14,-0.35,-0.15,9.97,12:16:3,33.898045N,-113.728310W,14979.20,76.35,16
6273436,-28.76,14639.32,280,-4.14,-1.14,0.05,10.05,12:16:4,33.898178N,-113.727974W,14983.50,75.38,16
6274437,-28.50,14606.41,323,-4.16,-0.57,-0.07,9.94,12:16:5,33.898315N,-113.727654W,14987.30,75.11,16
6275438,-28.14,14548.72,346,-4.16,0.35,0.15,9.88,12:16:6,33.898457N,-113.727333W,14990.70,75.08,16
6276439,-28.20,14617.36,332,-4.19,-0.41,0.04,10.07,12:16:7,33.898602N,-113.727013W,14993.80,74.15,16
6277440,-28.24,14680.22,345,-4.21,-0.18,-0.79,10.05,12:16:8,33.898754N,-113.726707W,14996.50,74.20,16
6278441,-28.25,14720.44,325,-4.25,-0.18,0.00,9.98,12:16:9,33.898899N,-113.726387W,14998.90,74.08,16
6279442,-28.22,14702.85,332,-4.26,-0.78,-0.87,9.95,12:16:10,33.899040N,-113.726051W,15001.20,75.57,16
6280443,-28.19,14689.91,340,-4.27,-0.24,-0.01,10.00,12:16:11,33.899178N,-113.725746W,15004.10,74.69,16
6281444,-28.17,14682.07,335,-4.29,0.50,0.34,10.05,12:16:12,33.899319N,-113.725441W,15007.10,74.06,16
6282445,-28.13,14676.08,319,-4.36,-0.27,-0.36,10.08,12:16:13,33.899460N,-113.725121W,15009.80,74.58,16
6283446,-28.09,14671.93,298,-4.36,-0.56,-0.61,10.22,12:16:14,33.899601N,-113.724800W,15012.70,74.39,16
6284447,-27.98,14669.63,317,-4.31,-0.01,-0.14,10.35,12:16:15,33.899742N,-113.724495W,15015.50,73.58,16
6285448,-27.94,14649.41,351,-4.37,-0.98,0.01,10.32,12:16:16,33.899883N,-113.724174W,15018.10,73.78,16
6286449,-27.61,14654.00,387,-4.32,-0.14,-0.83,10.31,12:16:17,33.900021N,-113.723854W,15021.80,74.39,16
6287450,-27.64,14657.67,353,-4.41,-0.56,-0.59,10.20,12:16:18,33.900154N,-113.723534W,15024.60,73.63,16
6288451,-27.64,14662.27,302,-4.43,-0.40,-0.01,10.12,12:16:19,33.900284N,-113.723213W,15028.30,72.58,16
6289452,-27.64,14656.30,335,-4.48,-0.55,0.11,10.00,12:16:20,33.900402N,-113.722893W,15032.40,71.87,16
6290453,-27.41,14658.13,332,-4.50,-0.21,-0.43,9.94,12:16:21,33.900524N,-113.722588W,15035.30,71.40,16
6291454,-27.28,14659.05,317,-4.54,-0.07,-0.43,10.01,12:16:22,33.900646N,-113.722267W,15038.80,70.36,16
6292455,-27.16,14609.60,25,-4.55,-0.81,-0.29,10.06,12:16:23,33.900761N,-113.721962W,15042.30,69.47,16
6293456,-26.78,14570.47,336,-4.60,-0.41,0.00,9.88,12:16:24,33.900890N,-113.721649W,15045.80,69.93,16
6294457,-26.47,14594.56,341,-4.59,0.16,-0.43,9.88,12:16:25,33.901016N,-113.721359W,15048.80,69.98,16
6295458,-26.45,14609.60,333,-4.56,-0.38,-0.56,9.91,12:16:26,33.901134N,-113.721062W,15051.90,69.44,16
6296459,-26.40,14569.11,249,-4.57,-0.74,-0.33,10.01,12:16:27,33.901260N,-113.720772W,15054.70,69.51,16
6297460,-26.13,14537.87,382,-4.65,-0.43,-0.04,10.01,12:16:28,33.901382N,-113.720459W,15057.40,70.18,16
6298461,-26.28,14594.10,356,-4.61,-0.16,0.32,10.12,12:16:29,33.901512N,-113.720154W,15060.30,70.18,16
6299462,-26.41,14656.30,346,-4.64,-0.17,-0.37,10.23,12:16:30,33.901638N,-113.719849W,15062.60,69.45,16
6300463,-26.48,14595.01,21,-4.62,-0.66,-0.60,10.36,12:16:31,33.901768N,-113.719551W,15065.30,69.85,16
6301464,-26.46,14669.17,367,-4.64,-0.35,-0.30,10.33,12:16:32,33.901890N,-113.719246W,15069.00,70.86,16
6302465,-26.49,14683.91,332,-4.64,-0.77,-0.09,10.26,12:16:33,33.902016N,-113.718941W,15071.60,70.94,16
6303466,-26.52,14738.55,347,-4.65,-0.25,-0.33,10.38,12:16:34,33.902142N,-113.718628W,15075.30,71.83,16
6304467,-26.56,14694.99,309,-4.66,-0.36,0.10,10.35,12:16:35,33.902267N,-113.718307W,15079.00,73.20,16
6305468,-26.17,14696.38,328,-4.67,-0.14,-0.28,10.25,12:16:36,33.902390N,-113.717987W,15083.30,74.24,16
6306469,-26.08,14704.70,352,-4.66,-0.22,-0.48,10.19,12:16:37,33.902523N,-113.717667W,15087.70,74.77,16
