time_since_start,bme_temp,bme_alt,uv,ism_temp,acc_x,acc_y,acc_z,gps_time,latitude,longitude,gps_alt,speed,sats
2103268,25.27,420.35,34,31.91,-8.58,4.56,-0.62,11:6:34,33.664627N,-114.007439W,485.40,0.09,18
2104269,25.27,420.43,34,31.91,-8.59,4.55,-0.61,11:6:35,33.664623N,-114.007439W,485.40,0.09,18
2105270,25.27,420.43,34,31.94,-8.59,4.55,-0.61,11:6:36,33.664623N,-114.007439W,485.50,0.09,18
2106271,25.27,420.43,34,31.91,-8.59,4.56,-0.62,11:6:37,33.664623N,-114.007439W,485.50,0.16,18
2107272,25.28,420.35,34,31.90,-8.58,4.55,-0.62,11:6:38,33.664623N,-114.007439W,485.50,0.13,18
2108273,25.29,420.26,34,31.91,-8.59,4.55,-0.61,11:6:39,33.664623N,-114.007439W,485.50,0.14,18
2109274,25.29,420.26,35,31.92,-8.58,4.55,-0.62,11:6:40,33.664623N,-114.007439W,485.50,0.12,17
2110275,25.30,420.35,34,31.93,-8.58,4.55,-0.62,11:6:41,33.664623N,-114.007439W,485.50,0.13,18
2111276,25.30,420.26,34,31.88,-8.59,4.55,-0.62,11:6:42,33.664623N,-114.007439W,485.50,0.01,18
2112277,25.29,420.26,34,31.91,-8.58,4.55,-0.62,11:6:43,33.664623N,-114.007439W,485.50,0.17,18
2113278,25.29,420.26,33,31.91,-8.58,4.55,-0.61,11:6:44,33.664623N,-114.007439W,485.50,0.14,18
2114279,25.28,420.26,33,31.93,-8.59,4.55,-0.62,11:6:45,33.664623N,-114.007439W,485.50,0.06,18
2115280,25.29,420.35,34,31.89,-8.59,4.55,-0.61,11:6:46,33.664623N,-114.007439W,485.50,0.24,18
2116281,25.31,420.43,34,31.91,-8.58,4.55,-0.62,11:6:47,33.664623N,-114.007439W,485.50,0.08,18
2117282,25.30,420.43,34,31.92,-8.59,4.55,-0.62,11:6:48,33.664623N,-114.007439W,485.50,0.08,18
2118283,25.29,420.43,34,31.94,-8.58,4.55,-0.61,11:6:49,33.664623N,-114.007439W,485.40,0.23,18
2119284,25.29,420.43,34,31.92,-8.59,4.55,-0.62,11:6:50,33.664623N,-114.007439W,485.40,0.15,18
2120285,25.29,420.43,34,31.91,-8.59,4.55,-0.61,11:6:51,33.664623N,-114.007439W,485.40,0.02,18
2121286,25.28,420.26,34,31.94,-8.59,4.55,-0.62,11:6:52,33.664623N,-114.007439W,485.40,0.07,18
2122287,25.27,420.43,33,31.92,-8.59,4.55,-0.62,11:6:53,33.664623N,-114.007439W,485.40,0.12,18
2123288,25.23,420.52,34,31.95,-8.59,4.56,-0.62,11:6:54,33.664623N,-114.007439W,485.40,0.06,18
2124289,25.19,420.52,34,31.95,-8.60,4.55,-0.61,11:6:55,33.664623N,-114.007439W,485.40,0.14,18
2125290,25.17,420.52,34,31.95,-8.59,4.55,-0.62,11:6:56,33.664623N,-114.007439W,485.40,0.03,18
2126291,25.16,420.52,34,31.94,-8.59,4.55,-0.61,11:6:57,33.664623N,-114.007439W,485.40,0.07,18
2127292,25.16,420.52,34,31.94,-8.59,4.56,-0.61,11:6:58,33.664623N,-114.007439W,485.40,0.05,18
2128293,25.17,420.52,34,31.96,-8.59,4.55,-0.61,11:6:59,33.664623N,-114.007439W,485.40,0.06,18
2129294,25.17,420.52,34,31.93,-8.59,4.54,-0.63,11:7:0,33.664623N,-114.007439W,485.40,0.14,18
2130295,25.16,420.52,35,31.98,-8.59,4.55,-0.62,11:7:1,33.664623N,-114.007439W,485.40,0.14,18
2131296,25.15,420.52,34,31.98,-8.58,4.55,-0.62,11:7:2,33.664623N,-114.007439W,485.40,0.03,18
2132297,25.15,420.52,35,31.96,-8.59,4.55,-0.61,11:7:3,33.664623N,-114.007439W,485.50,0.25,18
2133298,25.15,420.52,33,31.98,-8.59,4.55,-0.63,11:7:4,33.664623N,-114.007439W,485.40,0.20,18
2134299,25.15,420.61,33,31.95,-8.58,4.56,-0.62,11:7:5,33.664623N,-114.007439W,485.40,0.18,18
2135300,25.16,420.61,34,31.96,-8.59,4.55,-0.62,11:7:6,33.664623N,-114.007439W,485.30,0.13,18
2136301,25.17,420.61,34,31.97,-8.58,4.55,-0.62,11:7:7,33.664623N,-114.007439W,485.30,0.07,18
2137302,25.17,420.61,34,31.98,-8.59,4.55,-0.62,11:7:8,33.664623N,-114.007439W,485.30,0.06,18
2138303,25.17,420.61,34,31.95,-8.59,4.55,-0.62,11:7:9,33.664623N,-114.007439W,485.30,0.10,18
2139304,25.18,420.69,34,31.96,-8.60,4.55,-0.62,11:7:10,33.664623N,-114.007439W,485.30,0.09,17
2140305,25.19,420.61,34,31.96,-8.59,4.54,-0.63,11:7:11,33.664623N,-114.007439W,485.30,0.07,17
2141306,25.20,420.69,34,31.96,-8.58,4.55,-0.61,11:7:12,33.664623N,-114.007439W,485.30,0.07,18
2142307,25.21,420.61,34,31.97,-8.58,4.54,-0.61,11:7:13,33.664623N,-114.007439W,485.30,0.02,18
2143308,25.22,420.61,34,31.98,-8.59,4.55,-0.62,11:7:14,33.664623N,-114.007439W,485.40,0.02,17
2144309,25.23,420.61,34,31.96,-8.58,4.56,-0.62,11:7:15,33.664623N,-114.007439W,485.40,0.07,17
2145310,25.24,420.52,34,31.98,-8.59,4.55,-0.62,11:7:16,33.664623N,-114.007439W,485.40,0.20,18
2146311,25.25,420.52,34,31.99,-8.59,4.55,-0.61,11:7:17,33.664623N,-114.007439W,485.40,0.09,18
2147312,25.27,420.61,34,31.98,-8.59,4.55,-0.63,11:7:18,33.664623N,-114.007439W,485.40,0.18,18
2148313,25.28,420.52,34,31.98,-8.59,4.55,-0.62,11:7:19,33.664623N,-114.007439W,485.40,0.16,18
2149314,25.29,420.52,34,31.96,-8.59,4.55,-0.62,11:7:20,33.664623N,-114.007439W,485.30,0.16,18
2150315,25.31,420.61,34,31.98,-8.60,4.56,-0.61,11:7:21,33.664623N,-114.007439W,485.40,0.21,18
2151316,25.33,420.69,34,32.01,-8.58,4.55,-0.62,11:7:22,33.664623N,-114.007439W,485.40,0.13,18
2152317,25.34,420.78,34,31.98,-8.59,4.55,-0.62,11:7:23,33.664623N,-114.007439W,485.40,0.13,18
2153318,25.36,420.69,34,31.97,-8.59,4.55,-0.61,11:7:24,33.664623N,-114.007423W,485.40,0.10,18
2154319,25.38,420.78,34,31.99,-8.59,4.56,-0.62,11:7:25,33.664623N,-114.007423W,485.40,0.02,18
2155320,25.40,420.78,34,32.00,-8.59,4.55,-0.61,11:7:26,33.664623N,-114.007423W,485.40,0.15,18
2156321,25.41,420.78,34,31.98,-8.59,4.55,-0.62,11:7:27,33.664623N,-114.007423W,485.40,0.06,18
2157322,25.43,420.69,34,32.00,-8.59,4.55,-0.62,11:7:28,33.664623N,-114.007423W,485.40,0.12,18
2158323,25.45,420.78,34,31.97,-8.59,4.55,-0.61,11:7:29,33.664623N,-114.007423W,485.40,0.05,18
2159324,25.47,420.78,33,31.99,-8.60,4.55,-0.62,11:7:30,33.664623N,-114.007423W,485.30,0.21,18
2160325,25.49,420.78,34,32.02,-8.58,4.54,-0.61,11:7:31,33.664623N,-114.007423W,485.30,0.05,18
2161326,25.51,420.87,34,32.03,-8.59,4.56,-0.62,11:7:32,33.664623N,-114.007439W,485.30,0.13,18
2162327,25.52,420.87,34,32.01,-8.59,4.55,-0.62,11:7:33,33.664623N,-114.007439W,485.40,0.20,18
2163328,25.54,420.78,34,32.00,-8.58,4.55,-0.62,11:7:34,33.664619N,-114.007439W,485.30,0.09,18
2164329,25.56,420.87,34,31.99,-8.58,4.56,-0.61,11:7:35,33.664619N,-114.007439W,485.30,0.21,17
2165330,25.58,420.78,34,32.02,-8.59,4.55,-0.62,11:7:36,33.664619N,-114.007439W,485.30,0.13,17
2166331,25.60,420.87,34,32.00,-8.59,4.55,-0.62,11:7:37,33.664619N,-114.007439W,485.30,0.05,17
2167332,25.62,420.87,34,31.99,-8.58,4.55,-0.61,11:7:38,33.664619N,-114.007439W,485.30,0.16,18
2168333,25.64,420.78,34,32.04,-8.59,4.57,-0.62,11:7:39,33.664619N,-114.007439W,485.30,0.03,18
2169334,25.66,420.78,34,31.99,-8.60,4.55,-0.62,11:7:40,33.664619N,-114.007439W,485.30,0.09,18
2170335,25.68,420.69,34,31.98,-8.58,4.56,-0.62,11:7:41,33.664619N,-114.007439W,485.30,0.02,18
2171336,25.69,420.69,34,32.00,-8.59,4.56,-0.62,11:7:42,33.664619N,-114.007439W,485.30,0.07,18
2172337,25.71,420.69,33,32.03,-8.59,4.55,-0.62,11:7:43,33.664619N,-114.007439W,485.30,0.07,18
2173338,25.73,420.61,34,31.98,-8.58,4.55,-0.62,11:7:44,33.664619N,-114.007439W,485.40,0.01,18
2174339,25.75,420.43,34,32.04,-8.59,4.56,-0.62,11:7:45,33.664619N,-114.007439W,485.40,0.20,18
2175340,25.74,420.43,33,32.03,-8.59,4.55,-0.62,11:7:46,33.664619N,-114.007439W,485.40,0.16,18
2176341,25.74,420.43,34,32.09,-8.58,4.55,-0.62,11:7:47,33.664619N,-114.007423W,485.40,0.36,18
2177342,25.73,420.43,34,32.05,-8.59,4.56,-0.62,11:7:48,33.664619N,-114.007423W,485.30,0.45,18
2178343,25.74,420.43,34,32.04,-8.58,4.56,-0.61,11:7:49,33.664619N,-114.007423W,485.30,0.35,18
2179344,25.76,420.43,34,32.04,-8.59,4.56,-0.62,11:7:50,33.664619N,-114.007423W,485.30,0.07,18
2180345,25.77,420.43,34,32.06,-8.59,4.55,-0.62,11:7:51,33.664619N,-114.007423W,485.30,0.24,18
2181346,25.77,420.26,34,32.04,-8.59,4.56,-0.62,11:7:52,33.664619N,-114.007423W,485.30,0.17,18
2182347,25.78,420.26,34,32.04,-8.59,4.55,-0.63,11:7:53,33.664619N,-114.007423W,485.30,0.08,18
2183348,25.79,420.26,34,32.05,-8.59,4.55,-0.63,11:7:54,33.664619N,-114.007423W,485.30,0.08,18
2184349,25.79,420.17,33,32.04,-8.59,4.55,-0.62,11:7:55,33.664619N,-114.007423W,485.30,0.03,18
2185350,25.78,420.17,34,32.03,-8.58,4.55,-0.61,11:7:56,33.664619N,-114.007423W,485.30,0.10,18
2186351,25.77,420.17,33,32.07,-8.59,4.55,-0.63,11:7:57,33.664619N,-114.007423W,485.30,0.06,18
2187352,25.77,420.26,34,32.08,-8.59,4.56,-0.62,11:7:58,33.664619N,-114.007423W,485.40,0.06,18
2188353,25.78,420.26,34,32.04,-8.59,4.55,-0.61,11:7:59,33.664619N,-114.007423W,485.40,0.12,18
2189354,25.79,420.35,34,32.05,-8.59,4.55,-0.62,11:8:0,33.664619N,-114.007423W,485.40,0.13,18
2190355,25.80,420.26,34,32.08,-8.60,4.55,-0.62,11:8:1,33.664619N,-114.007423W,485.40,0.21,18
2191356,25.78,420.17,35,32.03,-8.59,4.55,-0.62,11:8:2,33.664619N,-114.007423W,485.40,0.21,18
2192357,25.77,420.17,35,32.01,-8.58,4.56,-0.62,11:8:3,33.664619N,-114.007423W,485.50,0.09,18
2193358,25.77,420.09,34,32.07,-8.59,4.55,-0.63,11:8:4,33.664619N,-114.007423W,485.50,0.21,18
2194359,25.78,420.17,29,32.10,-8.58,4.55,-0.62,11:8:5,33.664619N,-114.007423W,485.50,0.05,18
2195360,25.79,420.17,30,32.05,-8.59,4.55,-0.61,11:8:6,33.664619N,-114.007423W,485.50,0.02,18
2196361,25.78,420.17,28,32.11,-8.60,4.55,-0.61,11:8:7,33.664619N,-114.007423W,485.50,0.06,18
2197362,25.78,420.17,29,32.07,-8.58,4.56,-0.62,11:8:8,33.664619N,-114.007423W,485.40,0.28,18
2198363,25.78,420.17,29,32.10,-8.58,4.55,-0.62,11:8:9,33.664616N,-114.007423W,485.50,0.08,18
2199364,25.78,420.17,29,32.11,-8.59,4.55,-0.62,11:8:10,33.664616N,-114.007423W,485.50,0.05,17
2200365,25.76,420.17,28,32.11,-8.58,4.55,-0.61,11:8:11,33.664616N,-114.007423W,485.50,0.09,17
2201366,25.74,420.09,29,32.09,-8.59,4.56,-0.61,11:8:12,33.664616N,-114.007423W,485.50,0.17,18
2202367,25.73,420.09,28,32.07,-8.59,4.55,-0.62,11:8:13,33.664619N,-114.007423W,485.50,0.03,18
2203368,25.71,420.17,29,32.07,-8.59,4.55,-0.62,11:8:14,33.664619N,-114.007423W,485.50,0.09,17
2204369,25.71,420.17,29,32.07,-8.59,4.55,-0.63,11:8:15,33.664619N,-114.007423W,485.50,0.13,18
2205370,25.72,420.26,29,32.10,-8.59,4.55,-0.63,11:8:16,33.664619N,-114.007423W,485.50,0.20,17
2206371,25.72,420.26,28,32.12,-8.58,4.56,-0.61,11:8:17,33.664619N,-114.007423W,485.50,0.09,18
2207372,25.72,420.35,29,32.10,-8.59,4.57,-0.62,11:8:18,33.664619N,-114.007423W,485.60,0.15,17
2208373,25.70,420.35,29,32.10,-8.59,4.56,-0.62,11:8:19,33.664619N,-114.007423W,485.50,0.05,17
2209374,25.68,420.26,30,32.09,-8.59,4.56,-0.61,11:8:20,33.664619N,-114.007423W,485.50,0.07,17
2210375,25.65,420.26,33,32.07,-8.59,4.55,-0.61,11:8:21,33.664619N,-114.007423W,485.50,0.06,17
2211376,25.64,420.35,34,32.11,-8.59,4.55,-0.62,11:8:22,33.664619N,-114.007423W,485.50,0.05,17
2212377,25.63,420.26,34,32.11,-8.59,4.55,-0.62,11:8:23,33.664619N,-114.007423W,485.50,0.03,18
2213378,25.63,420.35,34,32.08,-8.59,4.55,-0.62,11:8:24,33.664619N,-114.007423W,485.50,0.03,17
2214379,25.63,420.35,34,32.12,-8.59,4.56,-0.61,11:8:25,33.664619N,-114.007423W,485.60,0.10,18
2215380,25.63,420.35,34,32.13,-8.59,4.55,-0.62,11:8:26,33.664616N,-114.007423W,485.60,0.10,18
2216381,25.63,420.43,34,32.11,-8.59,4.55,-0.62,11:8:27,33.664616N,-114.007423W,485.60,0.09,18
2217382,25.64,420.43,34,32.08,-8.59,4.55,-0.62,11:8:28,33.664616N,-114.007423W,485.60,0.03,18
2218383,25.62,420.43,33,32.11,-8.58,4.55,-0.63,11:8:29,33.664616N,-114.007423W,485.60,0.10,18
2219384,25.60,420.35,33,32.10,-8.59,4.56,-0.62,11:8:30,33.664616N,-114.007423W,485.60,0.02,18
2220385,25.57,420.35,33,32.14,-8.59,4.55,-0.61,11:8:31,33.664616N,-114.007423W,485.60,0.16,18
2221386,25.54,420.43,34,32.11,-8.59,4.55,-0.62,11:8:32,33.664616N,-114.007423W,485.60,0.09,18
2222387,25.53,420.43,33,32.17,-8.59,4.55,-0.62,11:8:33,33.664616N,-114.007423W,485.60,0.08,18
2223388,25.52,420.43,33,32.13,-8.59,4.56,-0.62,11:8:34,33.664616N,-114.007423W,485.60,0.01,18
2224389,25.52,420.43,33,32.16,-8.59,4.55,-0.61,11:8:35,33.664616N,-114.007423W,485.60,0.07,18
2225390,25.52,420.43,33,32.17,-8.58,4.55,-0.61,11:8:36,33.664616N,-114.007423W,485.60,0.01,17
2226391,25.51,420.35,34,32.11,-8.59,4.55,-0.62,11:8:37,33.664616N,-114.007423W,485.60,0.10,18
2227392,25.50,420.35,33,32.16,-8.59,4.55,-0.62,11:8:38,33.664616N,-114.007423W,485.60,0.14,18
2228393,25.51,420.35,34,32.14,-8.59,4.55,-0.63,11:8:39,33.664616N,-114.007439W,485.60,0.13,17
2229394,25.51,420.35,34,32.14,-8.58,4.55,-0.61,11:8:40,33.664616N,-114.007439W,485.60,0.20,18
2230395,25.51,420.35,35,32.16,-8.60,4.55,-0.62,11:8:41,33.664616N,-114.007439W,485.60,0.17,18
2231396,25.49,420.35,34,32.16,-8.59,4.55,-0.62,11:8:42,33.664616N,-114.007439W,485.60,0.05,18
2232397,25.50,420.35,34,32.14,-8.59,4.56,-0.62,11:8:43,33.664616N,-114.007439W,485.60,0.14,18
2233398,25.50,420.35,34,32.16,-8.59,4.55,-0.62,11:8:44,33.664616N,-114.007439W,485.60,0.05,18
2234399,25.49,420.35,34,32.19,-8.59,4.56,-0.62,11:8:45,33.664616N,-114.007439W,485.60,0.05,18
2235400,25.46,420.35,34,32.18,-8.59,4.56,-0.61,11:8:46,33.664616N,-114.007439W,485.60,0.10,18
2236401,25.44,420.35,35,32.16,-8.59,4.55,-0.62,11:8:47,33.664616N,-114.007439W,485.60,0.29,18
2237402,25.43,420.35,34,32.20,-8.60,4.55,-0.62,11:8:48,33.664616N,-114.007439W,485.60,0.22,18
2238403,25.41,420.35,34,32.16,-8.60,4.55,-0.63,11:8:49,33.664612N,-114.007439W,485.60,0.20,18
2239404,25.36,420.35,34,32.18,-8.59,4.56,-0.62,11:8:50,33.664612N,-114.007439W,485.60,0.06,18
2240405,25.33,420.43,35,32.17,-8.59,4.55,-0.63,11:8:51,33.664612N,-114.007439W,485.50,0.06,18
2241406,25.30,420.35,35,32.20,-8.58,4.55,-0.62,11:8:52,33.664612N,-114.007439W,485.50,0.07,18
2242407,25.29,420.35,35,32.19,-8.59,4.56,-0.63,11:8:53,33.664612N,-114.007439W,485.50,0.13,17
2243408,25.29,420.35,34,32.20,-8.58,4.56,-0.62,11:8:54,33.664612N,-114.007439W,485.50,0.07,18
2244409,25.29,420.35,34,32.19,-8.60,4.54,-0.63,11:8:55,33.664612N,-114.007439W,485.60,0.06,18
2245410,25.29,420.35,34,32.18,-8.58,4.56,-0.61,11:8:56,33.664612N,-114.007439W,485.60,0.05,17
2246411,25.29,420.26,34,32.20,-8.59,4.55,-0.62,11:8:57,33.664612N,-114.007439W,485.60,0.08,18
2247412,25.28,420.35,34,32.18,-8.59,4.54,-0.61,11:8:58,33.664612N,-114.007439W,485.60,0.02,18
2248413,25.28,420.35,33,32.20,-8.59,4.55,-0.62,11:8:59,33.664612N,-114.007439W,485.60,0.05,17
2249414,25.26,420.26,33,32.20,-8.58,4.55,-0.62,11:9:0,33.664612N,-114.007439W,485.50,0.01,17
2250415,25.24,420.35,33,32.20,-8.59,4.56,-0.62,11:9:1,33.664612N,-114.007439W,485.50,0.40,17
2251416,25.23,420.26,34,32.21,-8.59,4.56,-0.62,11:9:2,33.664612N,-114.007439W,485.50,0.05,17
2252417,25.22,420.17,34,32.16,-8.59,4.55,-0.61,11:9:3,33.664612N,-114.007439W,485.60,0.05,17
2253418,25.20,420.26,34,32.19,-8.59,4.55,-0.62,11:9:4,33.664612N,-114.007439W,485.60,0.14,17
2254419,25.18,420.26,34,32.20,-8.59,4.56,-0.62,11:9:5,33.664612N,-114.007439W,485.60,0.07,18
2255420,25.17,420.26,33,32.21,-8.59,4.56,-0.61,11:9:6,33.664612N,-114.007439W,485.60,0.25,17
2256421,25.15,420.26,34,32.21,-8.59,4.55,-0.63,11:9:7,33.664612N,-114.007439W,485.60,0.16,17
2257422,25.15,420.26,31,32.19,-8.59,4.55,-0.62,11:9:8,33.664612N,-114.007439W,485.60,0.05,18
2258423,25.13,420.26,30,32.20,-8.59,4.55,-0.61,11:9:9,33.664612N,-114.007439W,485.60,0.08,18
2259424,25.12,420.26,34,32.20,-8.59,4.56,-0.61,11:9:10,33.664612N,-114.007439W,485.60,0.07,18
2260425,25.12,420.26,34,32.20,-8.59,4.55,-0.62,11:9:11,33.664612N,-114.007439W,485.60,0.16,18
2261426,25.12,420.26,34,32.23,-8.59,4.55,-0.61,11:9:12,33.664612N,-114.007439W,485.70,0.08,18
2262427,25.12,420.26,34,32.23,-8.58,4.56,-0.62,11:9:13,33.664612N,-114.007439W,485.70,0.14,18
2263428,25.11,420.35,34,32.22,-8.59,4.55,-0.63,11:9:14,33.664612N,-114.007439W,485.70,0.05,18
2264429,25.11,420.35,33,32.22,-8.59,4.55,-0.63,11:9:15,33.664612N,-114.007439W,485.70,0.05,18
2265430,25.11,420.35,34,32.21,-8.59,4.55,-0.62,11:9:16,33.664612N,-114.007439W,485.70,0.17,18
2266431,25.10,420.35,34,32.23,-8.59,4.55,-0.63,11:9:17,33.664616N,-114.007439W,485.70,0.31,18
2267432,25.08,420.35,34,32.23,-8.59,4.56,-0.63,11:9:18,33.664612N,-114.007439W,485.70,0.12,18
2268433,25.06,420.43,34,32.22,-8.59,4.56,-0.62,11:9:19,33.664612N,-114.007439W,485.70,0.05,18
2269434,25.06,420.43,34,32.21,-8.59,4.55,-0.62,11:9:20,33.664616N,-114.007439W,485.60,0.05,18
2270435,25.05,420.43,34,32.21,-8.58,4.55,-0.61,11:9:21,33.664616N,-114.007439W,485.60,0.10,18
2271436,25.03,420.52,34,32.23,-8.59,4.56,-0.62,11:9:22,33.664616N,-114.007439W,485.60,0.06,18
2272437,25.00,420.52,34,32.22,-8.58,4.56,-0.62,11:9:23,33.664616N,-114.007439W,485.60,0.07,18
2273438,24.97,420.52,35,32.25,-8.60,4.56,-0.62,11:9:24,33.664616N,-114.007439W,485.70,0.12,17
2274439,24.95,420.61,35,32.24,-8.58,4.56,-0.62,11:9:25,33.664612N,-114.007439W,485.60,0.22,18
2275440,24.94,420.61,34,32.20,-8.59,4.55,-0.63,11:9:26,33.664612N,-114.007439W,485.60,0.10,17
2276441,24.94,420.61,34,32.25,-8.59,4.55,-0.62,11:9:27,33.664612N,-114.007439W,485.60,0.15,18
2277442,24.94,420.61,35,32.24,-8.59,4.55,-0.61,11:9:28,33.664612N,-114.007439W,485.60,0.17,17
2278443,24.94,420.52,35,32.24,-8.59,4.56,-0.62,11:9:29,33.664612N,-114.007439W,485.60,0.07,17
2279444,24.94,420.52,34,32.22,-8.59,4.55,-0.63,11:9:30,33.664612N,-114.007439W,485.60,0.09,17
2280445,24.94,420.52,35,32.23,-8.58,4.56,-0.63,11:9:31,33.664612N,-114.007439W,485.60,0.09,17
2281446,24.92,420.43,35,32.26,-8.59,4.56,-0.62,11:9:32,33.664612N,-114.007439W,485.60,0.09,17
2282447,24.91,420.43,34,32.23,-8.60,4.55,-0.61,11:9:33,33.664612N,-114.007439W,485.60,0.05,18
2283448,24.91,420.43,34,32.23,-8.58,4.55,-0.62,11:9:34,33.664612N,-114.007439W,485.60,0.02,17
2284449,24.91,420.43,34,32.27,-8.58,4.55,-0.62,11:9:35,33.664612N,-114.007439W,485.70,0.09,18
2285450,24.90,420.35,34,32.27,-8.59,4.55,-0.61,11:9:36,33.664612N,-114.007439W,485.60,0.12,17
2286451,24.90,420.35,34,32.23,-8.60,4.55,-0.60,11:9:37,33.664612N,-114.007439W,485.70,0.12,17
2287452,24.88,420.43,34,32.25,-8.59,4.56,-0.61,11:9:38,33.664612N,-114.007439W,485.70,0.03,18
2288453,24.87,420.43,34,32.23,-8.59,4.55,-0.62,11:9:39,33.664612N,-114.007439W,485.70,0.02,17
2289454,24.83,420.35,34,32.27,-8.59,4.55,-0.61,11:9:40,33.664612N,-114.007439W,485.60,0.05,17
2290455,24.80,420.43,34,32.25,-8.59,4.55,-0.62,11:9:41,33.664612N,-114.007439W,485.60,0.08,18
2291456,24.80,420.43,35,32.29,-8.59,4.56,-0.61,11:9:42,33.664612N,-114.007439W,485.60,0.18,17
2292457,24.80,420.35,34,32.23,-8.58,4.56,-0.63,11:9:43,33.664612N,-114.007439W,485.70,0.06,17
2293458,24.81,420.35,34,32.27,-8.58,4.55,-0.61,11:9:44,33.664612N,-114.007439W,485.70,0.09,17
2294459,24.81,420.43,34,32.32,-8.59,4.55,-0.62,11:9:45,33.664612N,-114.007439W,485.70,0.09,17
2295460,24.81,420.43,35,32.29,-8.59,4.55,-0.62,11:9:46,33.664616N,-114.007439W,485.70,0.02,17
2296461,24.82,420.52,34,32.29,-8.59,4.56,-0.61,11:9:47,33.664616N,-114.007439W,485.70,0.14,18
2297462,24.83,420.52,34,32.22,-8.58,4.55,-0.63,11:9:48,33.664612N,-114.007439W,485.70,0.20,17
2298463,24.84,420.52,35,32.27,-8.60,4.55,-0.61,11:9:49,33.664612N,-114.007439W,485.60,0.07,17
2299464,24.85,420.43,35,32.29,-8.58,4.55,-0.62,11:9:50,33.664612N,-114.007439W,485.60,0.22,18
2300465,24.86,420.43,35,32.27,-8.59,4.55,-0.62,11:9:51,33.664616N,-114.007439W,485.60,0.07,18
2301466,24.88,420.52,35,32.27,-8.59,4.55,-0.62,11:9:52,33.664616N,-114.007439W,485.60,0.14,18
2302467,24.89,420.52,34,32.26,-8.59,4.55,-0.63,11:9:53,33.664616N,-114.007439W,485.60,0.18,18
2303468,24.90,420.61,34,32.29,-8.59,4.56,-0.62,11:9:54,33.664612N,-114.007439W,485.70,0.13,19
2304469,24.91,420.52,34,32.27,-8.59,4.55,-0.62,11:9:55,33.664616N,-114.007439W,485.70,0.08,18
2305470,24.93,420.52,34,32.29,-8.59,4.55,-0.63,11:9:56,33.664616N,-114.007439W,485.70,0.15,18
2306471,24.95,420.43,35,32.26,-8.59,4.56,-0.61,11:9:57,33.664616N,-114.007439W,485.70,0.12,18
2307472,24.97,420.43,35,32.30,-8.59,4.55,-0.62,11:9:58,33.664612N,-114.007439W,485.70,0.14,18
2308473,24.96,420.43,34,32.29,-8.59,4.55,-0.62,11:9:59,33.664612N,-114.007439W,485.70,0.09,18
2309474,24.95,420.52,34,32.31,-8.58,4.55,-0.62,11:10:0,33.664612N,-114.007439W,485.70,0.06,18
2310475,24.96,420.52,34,32.31,-8.59,4.54,-0.62,11:10:1,33.664612N,-114.007439W,485.70,0.20,18
2311476,24.97,420.43,34,32.35,-8.58,4.55,-0.62,11:10:2,33.664616N,-114.007439W,485.70,0.06,18
2312477,24.98,420.43,34,32.28,-8.59,4.55,-0.62,11:10:3,33.664616N,-114.007439W,485.70,0.09,18
2313478,24.98,420.52,34,32.30,-8.58,4.55,-0.62,11:10:4,33.664616N,-114.007439W,485.70,0.14,18
2314479,24.96,420.52,34,32.31,-8.59,4.55,-0.61,11:10:5,33.664616N,-114.007439W,485.70,0.08,18
2315480,24.96,420.52,35,32.30,-8.59,4.55,-0.62,11:10:6,33.664616N,-114.007439W,485.60,0.14,18
2316481,24.95,420.52,34,32.31,-8.60,4.55,-0.62,11:10:7,33.664616N,-114.007439W,485.60,0.09,18
2317482,24.94,420.43,34,32.30,-8.59,4.54,-0.63,11:10:8,33.664616N,-114.007439W,485.60,0.06,18
2318483,24.93,420.43,34,32.29,-8.59,4.56,-0.62,11:10:9,33.664616N,-114.007439W,485.60,0.12,19
2319484,24.93,420.43,34,32.32,-8.58,4.55,-0.63,11:10:10,33.664616N,-114.007439W,485.60,0.08,18
2320485,24.93,420.43,34,32.31,-8.59,4.55,-0.62,11:10:11,33.664616N,-114.007439W,485.70,0.03,18
2321486,24.93,420.43,34,32.31,-8.59,4.55,-0.62,11:10:12,33.664616N,-114.007439W,485.70,0.13,18
2322487,24.94,420.35,34,32.31,-8.59,4.56,-0.61,11:10:13,33.664616N,-114.007439W,485.70,0.12,17
2323488,24.95,420.43,34,32.34,-8.59,4.55,-0.63,11:10:14,33.664616N,-114.007439W,485.70,0.09,18
2324489,24.96,420.43,35,32.30,-8.59,4.55,-0.63,11:10:15,33.664616N,-114.007439W,485.70,0.08,19
2325490,24.98,420.35,34,32.33,-8.58,4.55,-0.62,11:10:16,33.664616N,-114.007439W,485.70,0.13,18
2326491,24.99,420.35,34,32.32,-8.59,4.54,-0.63,11:10:17,33.664616N,-114.007439W,485.70,0.07,18
2327492,24.99,420.35,34,32.38,-8.59,4.55,-0.61,11:10:18,33.664616N,-114.007439W,485.70,0.12,19
2328493,24.99,420.35,34,32.36,-8.59,4.55,-0.62,11:10:19,33.664616N,-114.007439W,485.70,0.20,18
2329494,24.98,420.35,34,32.35,-8.59,4.55,-0.62,11:10:20,33.664616N,-114.007439W,485.70,0.13,19
2330495,24.97,420.26,34,32.32,-8.59,4.55,-0.62,11:10:21,33.664616N,-114.007439W,485.60,0.16,19
2331496,24.94,420.35,34,32.32,-8.59,4.55,-0.62,11:10:22,33.664616N,-114.007439W,485.60,0.18,19
2332497,24.94,420.35,34,32.31,-8.59,4.55,-0.62,11:10:23,33.664616N,-114.007439W,485.60,0.12,19
2333498,24.94,420.43,34,32.33,-8.59,4.55,-0.61,11:10:24,33.664616N,-114.007439W,485.60,0.10,19
2334499,24.94,420.35,34,32.32,-8.58,4.55,-0.61,11:10:25,33.664616N,-114.007439W,485.60,0.12,19
2335500,24.94,420.35,34,32.33,-8.59,4.55,-0.62,11:10:26,33.664616N,-114.007439W,485.60,0.03,19
2336501,24.96,420.17,34,32.32,-8.58,4.55,-0.62,11:10:27,33.664616N,-114.007439W,485.60,0.08,19
2337502,24.97,420.17,34,32.35,-8.59,4.55,-0.62,11:10:28,33.664616N,-114.007439W,485.60,0.08,19
2338503,24.97,420.17,35,32.34,-8.59,4.55,-0.62,11:10:29,33.664616N,-114.007439W,485.60,0.02,19
2339504,24.97,420.17,34,32.41,-8.59,4.55,-0.62,11:10:30,33.664616N,-114.007439W,485.60,0.07,18
2340505,24.98,420.26,34,32.36,-8.59,4.55,-0.61,11:10:31,33.664616N,-114.007439W,485.60,0.15,18
2341506,24.98,420.26,35,32.36,-8.59,4.55,-0.62,11:10:32,33.664616N,-114.007439W,485.70,0.23,19
2342507,24.99,420.35,34,32.40,-8.59,4.56,-0.62,11:10:33,33.664616N,-114.007439W,485.60,0.14,18
2343508,24.99,420.26,34,32.36,-8.59,4.55,-0.62,11:10:34,33.664616N,-114.007439W,485.60,0.05,19
2344509,24.99,420.26,34,32.36,-8.59,4.56,-0.62,11:10:35,33.664616N,-114.007439W,485.60,0.05,19
2345510,24.99,420.26,34,32.39,-8.59,4.56,-0.62,11:10:36,33.664616N,-114.007439W,485.60,0.03,17
2346511,25.00,420.26,34,32.39,-8.59,4.56,-0.62,11:10:37,33.664616N,-114.007439W,485.60,0.12,19
2347512,25.01,420.17,33,32.37,-8.59,4.55,-0.62,11:10:38,33.664616N,-114.007439W,485.60,0.22,19
2348513,25.02,420.17,33,32.36,-8.59,4.55,-0.62,11:10:39,33.664616N,-114.007439W,485.60,0.15,17
2349514,25.02,420.17,33,32.39,-8.59,4.56,-0.62,11:10:40,33.664616N,-114.007439W,485.60,0.09,18
2350515,25.03,420.17,33,32.34,-8.60,4.55,-0.62,11:10:41,33.664616N,-114.007439W,485.60,0.17,18
2351516,25.04,420.17,34,32.34,-8.59,4.55,-0.62,11:10:42,33.664616N,-114.007439W,485.60,0.03,18
2352517,25.06,420.09,33,32.41,-8.60,4.55,-0.62,11:10:43,33.664616N,-114.007439W,485.60,0.13,18
2353518,25.07,420.17,34,32.42,-8.58,4.55,-0.62,11:10:44,33.664616N,-114.007439W,485.70,0.03,19
2354519,25.09,420.17,34,32.39,-8.60,4.56,-0.61,11:10:45,33.664616N,-114.007439W,485.60,0.01,19
2355520,25.10,420.09,34,32.38,-8.59,4.55,-0.62,11:10:46,33.664616N,-114.007439W,485.70,0.17,18
2356521,25.11,420.09,34,32.39,-8.59,4.55,-0.61,11:10:47,33.664616N,-114.007439W,485.70,0.07,19
2357522,25.12,420.00,34,32.41,-8.58,4.55,-0.63,11:10:48,33.664616N,-114.007439W,485.70,0.05,19
2358523,25.13,420.00,34,32.41,-8.59,4.55,-0.62,11:10:49,33.664616N,-114.007439W,485.80,0.10,19
2359524,25.14,420.00,34,32.38,-8.59,4.56,-0.62,11:10:50,33.664616N,-114.007439W,485.80,0.10,19
2360525,25.15,420.00,33,32.39,-8.59,4.55,-0.62,11:10:51,33.664616N,-114.007439W,485.70,0.15,19
2361526,25.15,420.00,34,32.39,-8.59,4.54,-0.61,11:10:52,33.664616N,-114.007439W,485.70,0.10,19
2362527,25.16,420.00,34,32.38,-8.59,4.55,-0.62,11:10:53,33.664616N,-114.007439W,485.70,0.02,18
2363528,25.17,420.00,34,32.43,-8.59,4.55,-0.62,11:10:54,33.664616N,-114.007439W,485.70,0.13,19
2364529,25.19,420.00,34,32.44,-8.59,4.54,-0.62,11:10:55,33.664616N,-114.007439W,485.70,0.05,18
2365530,25.21,420.00,34,32.44,-8.59,4.55,-0.63,11:10:56,33.664616N,-114.007439W,485.70,0.06,19
2366531,25.22,420.00,34,32.43,-8.58,4.55,-0.61,11:10:57,33.664616N,-114.007439W,485.70,0.23,19
2367532,25.22,419.91,34,32.41,-8.59,4.55,-0.62,11:10:58,33.664616N,-114.007439W,485.70,0.10,19
2368533,25.23,419.91,34,32.40,-8.59,4.55,-0.62,11:10:59,33.664616N,-114.007439W,485.70,0.05,18
2369534,25.24,419.91,34,32.43,-8.59,4.55,-0.62,11:11:0,33.664619N,-114.007439W,485.70,0.16,18
2370535,25.25,420.00,34,32.42,-8.60,4.55,-0.62,11:11:1,33.664616N,-114.007439W,485.70,0.06,18
2371536,25.26,420.09,33,32.39,-8.59,4.55,-0.61,11:11:2,33.664619N,-114.007439W,485.80,0.25,19
2372537,25.26,420.09,33,32.42,-8.59,4.55,-0.62,11:11:3,33.664616N,-114.007439W,485.70,0.17,16
2373538,25.25,420.09,33,32.44,-8.59,4.56,-0.63,11:11:4,33.664616N,-114.007439W,485.70,0.03,18
2374539,25.26,420.09,34,32.36,-8.59,4.55,-0.62,11:11:5,33.664616N,-114.007439W,485.70,0.05,18
2375540,25.27,420.09,34,32.40,-8.58,4.56,-0.62,11:11:6,33.664616N,-114.007439W,485.70,0.17,18
2376541,25.28,420.00,34,32.44,-8.58,4.55,-0.61,11:11:7,33.664619N,-114.007439W,485.70,0.13,17
2377542,25.28,420.00,33,32.39,-8.59,4.56,-0.62,11:11:8,33.664619N,-114.007439W,485.70,0.14,18
2378543,25.29,419.91,34,32.41,-8.59,4.55,-0.62,11:11:9,33.664619N,-114.007439W,485.70,0.12,18
2379544,25.29,419.91,33,32.48,-8.59,4.54,-0.63,11:11:10,33.664619N,-114.007439W,485.70,0.05,18
2380545,25.29,420.00,33,32.44,-8.59,4.54,-0.62,11:11:11,33.664619N,-114.007439W,485.70,0.10,19
2381546,25.30,419.91,34,32.44,-8.59,4.55,-0.62,11:11:12,33.664619N,-114.007439W,485.70,0.07,18
2382547,25.31,419.91,34,32.45,-8.58,4.56,-0.62,11:11:13,33.664619N,-114.007439W,485.70,0.25,18
2383548,25.32,420.00,34,32.45,-8.59,4.55,-0.61,11:11:14,33.664619N,-114.007439W,485.70,0.09,18
2384549,25.32,420.09,33,32.47,-8.59,4.55,-0.62,11:11:15,33.664619N,-114.007439W,485.70,0.09,18
2385550,25.32,420.09,34,32.45,-8.59,4.55,-0.62,11:11:16,33.664616N,-114.007439W,485.70,0.21,18
2386551,25.33,420.09,34,32.48,-8.59,4.55,-0.63,11:11:17,33.664619N,-114.007439W,485.70,0.18,18
2387552,25.34,420.00,34,32.46,-8.59,4.56,-0.62,11:11:18,33.664619N,-114.007439W,485.70,0.15,18
2388553,25.34,420.00,35,32.47,-8.59,4.56,-0.62,11:11:19,33.664619N,-114.007439W,485.70,0.05,18
2389554,25.34,420.00,34,32.44,-8.59,4.54,-0.62,11:11:20,33.664616N,-114.007439W,485.60,0.30,17
2390555,25.34,420.09,34,32.47,-8.59,4.56,-0.60,11:11:21,33.664619N,-114.007439W,485.70,0.07,17
2391556,25.34,420.09,34,32.48,-8.59,4.56,-0.62,11:11:22,33.664619N,-114.007439W,485.70,0.13,17
2392557,25.32,420.09,34,32.47,-8.58,4.55,-0.61,11:11:23,33.664619N,-114.007439W,485.60,0.12,19
2393558,25.32,420.09,33,32.46,-8.59,4.55,-0.62,11:11:24,33.664619N,-114.007439W,485.70,0.09,19
2394559,25.30,420.09,33,32.45,-8.59,4.55,-0.62,11:11:25,33.664619N,-114.007439W,485.70,0.06,18
2395560,25.29,420.09,34,32.48,-8.59,4.56,-0.62,11:11:26,33.664619N,-114.007439W,485.70,0.08,18
2396561,25.29,420.09,34,32.48,-8.58,4.55,-0.62,11:11:27,33.664619N,-114.007439W,485.70,0.14,18
2397562,25.28,420.09,34,32.47,-8.59,4.56,-0.62,11:11:28,33.664619N,-114.007439W,485.70,0.07,18
2398563,25.29,420.00,34,32.45,-8.58,4.55,-0.62,11:11:29,33.664619N,-114.007439W,485.70,0.03,18
2399564,25.28,420.09,33,32.45,-8.59,4.55,-0.62,11:11:30,33.664619N,-114.007439W,485.70,0.03,17
2400565,25.28,420.09,33,32.48,-8.59,4.55,-0.62,11:11:31,33.664619N,-114.007439W,485.70,0.23,18
2401566,25.29,420.09,34,32.48,-8.58,4.55,-0.63,11:11:32,33.664619N,-114.007439W,485.70,0.03,18
2402567,25.30,420.17,33,32.48,-8.58,4.56,-0.62,11:11:33,33.664619N,-114.007439W,485.70,0.06,18
time_since_start,bme_temp,bme_alt,uv,ism_temp,acc_x,acc_y,acc_z,gps_time,latitude,longitude,gps_alt,speed,sats
2102738,24.81,876.75,0,24.05,-8.54,4.49,-1.45,4:25:59,34.174458N,-112.984550W,906.60,15.19,18
2103739,24.80,876.57,0,24.04,-8.85,4.59,-2.01,4:26:0,34.174419N,-112.984604W,906.70,15.26,18
2104740,24.79,876.48,0,24.10,-8.73,4.75,-1.56,4:26:1,34.174377N,-112.984650W,906.60,15.31,18
2105741,24.78,876.39,0,24.07,-9.37,4.79,-1.13,4:26:2,34.174332N,-112.984703W,906.70,15.24,18
2106742,24.77,876.39,0,24.04,-8.22,3.23,-3.13,4:26:3,34.174286N,-112.984756W,906.50,15.29,18
2107743,24.76,876.48,0,24.08,-9.46,5.23,-1.67,4:26:4,34.174229N,-112.984795W,906.10,15.95,18
2108744,24.76,876.39,0,24.11,-7.96,4.51,-2.57,4:26:5,34.174175N,-112.984833W,906.00,16.54,18
2109745,24.75,876.39,0,24.07,-8.26,4.56,-1.34,4:26:6,34.174118N,-112.984886W,906.10,17.39,18
2110746,24.75,876.21,0,24.07,-9.16,5.58,-2.09,4:26:7,34.174057N,-112.984924W,906.20,17.14,18
2111747,24.75,876.12,0,24.09,-7.44,5.06,-1.82,4:26:8,34.174004N,-112.984962W,906.40,16.39,18
2112748,24.75,875.94,0,24.08,-7.13,4.57,-2.37,4:26:9,34.173950N,-112.985008W,906.50,15.49,18
2113749,24.75,875.48,0,24.12,-9.70,6.11,-3.32,4:26:10,34.173897N,-112.985046W,906.70,14.18,18
2114750,24.74,875.30,0,24.09,-7.94,4.43,-2.49,4:26:11,34.173851N,-112.985077W,906.70,12.95,18
2115751,24.74,875.12,0,24.04,-8.03,3.28,-0.33,4:26:12,34.173809N,-112.985115W,907.00,11.96,17
2116752,24.74,875.03,0,23.98,-8.60,4.11,-1.72,4:26:13,34.173767N,-112.985138W,906.90,12.68,17
2117753,24.74,874.94,0,24.06,-10.39,4.45,-1.68,4:26:14,34.173725N,-112.985176W,907.10,12.20,17
2118754,24.74,874.76,0,24.01,-8.66,4.21,-0.97,4:26:15,34.173687N,-112.985207W,907.40,12.51,17
2119755,24.74,874.76,0,24.09,-10.05,5.03,-0.67,4:26:16,34.173645N,-112.985245W,907.20,13.80,17
2120756,24.74,874.67,0,24.09,-9.77,5.10,-0.89,4:26:17,34.173603N,-112.985291W,907.10,15.10,17
2121757,24.73,874.67,0,24.08,-8.10,4.48,-0.87,4:26:18,34.173557N,-112.985344W,907.00,15.52,17
2122758,24.73,874.67,0,24.02,-8.06,3.84,-0.72,4:26:19,34.173512N,-112.985397W,906.70,15.60,18
2123759,24.73,874.58,0,24.07,-8.58,4.32,-0.99,4:26:20,34.173462N,-112.985458W,906.40,15.58,18
2124760,24.73,874.40,0,24.13,-7.34,3.85,-1.67,4:26:21,34.173416N,-112.985512W,906.20,15.60,18
2125761,24.73,874.21,0,24.09,-8.76,4.90,-2.19,4:26:22,34.173367N,-112.985565W,906.00,15.64,18
2126762,24.73,874.21,0,24.10,-8.21,4.80,-2.08,4:26:23,34.173317N,-112.985603W,905.70,15.62,18
2127763,24.73,874.21,0,24.02,-8.41,4.82,-2.47,4:26:24,34.173267N,-112.985649W,905.60,15.62,18
2128764,24.73,874.12,0,24.01,-8.38,4.52,-1.46,4:26:25,34.173218N,-112.985687W,905.50,15.63,16
2129765,24.72,874.03,0,24.06,-8.19,4.39,-1.32,4:26:26,34.173168N,-112.985741W,905.30,15.64,14
2130766,24.72,873.76,0,24.07,-8.37,4.81,-0.72,4:26:27,34.173134N,-112.985802W,905.40,15.65,13
2131767,24.72,873.58,0,24.12,-8.19,4.65,-1.66,4:26:28,34.173115N,-112.985855W,905.60,14.54,14
2132768,24.71,873.49,0,24.04,-8.04,4.54,-1.33,4:26:29,34.173077N,-112.985909W,905.90,14.51,15
2133769,24.71,873.31,0,24.07,-8.13,4.99,-1.86,4:26:30,34.173038N,-112.985962W,905.80,14.07,16
2134770,24.70,873.13,0,24.07,-6.91,4.42,-1.87,4:26:31,34.172993N,-112.986000W,905.70,14.69,17
2135771,24.70,872.95,0,24.09,-7.82,4.39,-2.13,4:26:32,34.172943N,-112.986046W,905.50,14.91,17
2136772,24.69,872.85,0,24.08,-8.90,4.06,-0.77,4:26:33,34.172894N,-112.986084W,905.90,14.30,17
2137773,24.69,872.76,0,24.06,-7.87,3.82,-1.43,4:26:34,34.172848N,-112.986122W,905.60,14.38,17
2138774,24.70,872.58,0,24.05,-8.58,4.31,-1.30,4:26:35,34.172798N,-112.986191W,904.80,14.28,17
2139775,24.70,872.40,0,24.12,-9.47,5.49,-1.17,4:26:36,34.172760N,-112.986237W,904.40,13.75,18
2140776,24.70,872.31,0,24.05,-8.22,4.04,-1.34,4:26:37,34.172722N,-112.986290W,903.90,13.75,18
2141777,24.70,872.22,0,24.10,-8.02,3.87,-0.75,4:26:38,34.172684N,-112.986343W,903.20,13.98,18
2142778,24.69,872.04,0,24.04,-9.09,3.86,-0.48,4:26:39,34.172646N,-112.986397W,902.90,14.02,18
2143779,24.69,872.13,0,24.06,-9.56,4.76,-0.70,4:26:40,34.172604N,-112.986443W,903.30,14.68,18
2144780,24.69,872.22,0,24.08,-8.76,4.66,-2.29,4:26:41,34.172562N,-112.986481W,904.70,14.71,18
2145781,24.69,872.22,0,24.11,-8.13,4.68,-1.71,4:26:42,34.172520N,-112.986519W,905.90,14.74,18
2146782,24.69,872.04,0,24.11,-7.88,4.65,-3.07,4:26:43,34.172474N,-112.986557W,907.30,14.74,18
2147783,24.69,871.95,0,24.08,-8.87,5.27,-2.04,4:26:44,34.172421N,-112.986595W,907.80,14.73,17
2148784,24.70,871.86,0,24.07,-7.72,4.32,-2.55,4:26:45,34.172382N,-112.986649W,908.60,14.76,17
2149785,24.70,871.77,0,24.08,-8.28,4.73,-1.33,4:26:46,34.172348N,-112.986702W,908.50,14.74,18
2150786,24.70,871.50,0,24.13,-9.33,4.97,-1.11,4:26:47,34.172314N,-112.986763W,908.00,14.74,18
2151787,24.69,871.50,0,24.11,-9.25,3.74,-1.42,4:26:48,34.172283N,-112.986832W,907.10,14.77,18
2152788,24.69,871.50,0,24.07,-8.84,3.64,-0.01,4:26:49,34.172256N,-112.986893W,906.10,15.56,18
2153789,24.69,871.41,0,24.09,-10.07,4.13,-0.16,4:26:50,34.172222N,-112.986954W,905.60,16.37,18
2154790,24.68,871.31,0,24.09,-8.88,4.08,-1.03,4:26:51,34.172192N,-112.987030W,905.00,16.45,18
2155791,24.68,871.22,0,24.09,-9.60,4.20,-1.43,4:26:52,34.172153N,-112.987099W,905.50,17.20,18
2156792,24.67,871.13,0,24.13,-8.12,4.54,-1.79,4:26:53,34.172112N,-112.987160W,905.50,17.47,18
2157793,24.67,871.13,0,24.12,-7.83,3.91,-0.99,4:26:54,34.172070N,-112.987236W,905.50,17.78,18
2158794,24.67,871.04,0,24.07,-8.28,4.74,-1.74,4:26:55,34.172028N,-112.987305W,905.40,17.39,15
2159795,24.67,870.86,0,24.07,-8.27,4.26,-0.43,4:26:56,34.171974N,-112.987389W,905.00,19.33,18
2160796,24.67,870.68,0,24.07,-8.03,4.92,-1.56,4:26:57,34.171928N,-112.987457W,904.10,18.63,16
2161797,24.67,870.50,0,24.07,-7.42,3.45,-1.42,4:26:58,34.171890N,-112.987534W,903.80,18.54,15
2162798,24.68,870.32,0,24.06,-9.23,4.29,-1.05,4:26:59,34.171848N,-112.987595W,903.30,18.01,18
2163799,24.68,870.23,0,24.06,-7.91,4.96,-3.30,4:27:0,34.171806N,-112.987663W,903.10,17.78,17
2164800,24.69,869.96,0,24.08,-8.57,4.39,-0.18,4:27:1,34.171768N,-112.987724W,903.00,17.71,17
2165801,24.69,869.77,0,24.07,-9.13,4.95,-1.06,4:27:2,34.171726N,-112.987785W,903.10,17.21,18
2166802,24.69,869.59,0,24.06,-9.00,4.94,-2.11,4:27:3,34.171684N,-112.987854W,903.10,16.83,18
2167803,24.70,869.41,0,24.09,-8.14,4.01,-0.52,4:27:4,34.171646N,-112.987915W,903.10,16.17,18
2168804,24.70,869.23,0,24.04,-8.32,4.57,-1.49,4:27:5,34.171608N,-112.987984W,902.80,15.93,18
2169805,24.70,869.23,0,24.07,-8.39,4.05,-1.21,4:27:6,34.171566N,-112.988045W,902.60,15.94,18
2170806,24.70,869.14,0,24.05,-7.31,5.07,-1.97,4:27:7,34.171524N,-112.988106W,902.20,16.17,18
2171807,24.70,868.96,0,24.07,-8.08,4.98,-2.06,4:27:8,34.171482N,-112.988174W,902.10,16.09,18
2172808,24.71,868.78,0,24.07,-8.25,4.49,-2.29,4:27:9,34.171444N,-112.988220W,902.00,14.74,18
2173809,24.71,868.69,0,24.07,-7.20,4.13,-1.57,4:27:10,34.171410N,-112.988289W,901.90,13.89,18
2174810,24.71,868.51,0,24.13,-8.58,4.85,-1.48,4:27:11,34.171379N,-112.988342W,901.50,13.55,18
2175811,24.71,868.24,0,24.09,-9.08,5.15,-1.93,4:27:12,34.171360N,-112.988403W,901.20,13.52,18
2176812,24.71,868.05,0,24.11,-8.75,4.82,-1.21,4:27:13,34.171341N,-112.988464W,901.70,13.71,18
2177813,24.71,867.87,0,24.07,-9.32,5.30,-0.20,4:27:14,34.171329N,-112.988518W,902.10,13.18,18
2178814,24.71,867.60,0,24.09,-9.98,5.21,2.32,4:27:15,34.171314N,-112.988579W,902.40,11.74,18
2179815,24.70,867.33,0,24.13,-8.50,5.46,-0.19,4:27:16,34.171303N,-112.988632W,903.50,10.39,18
2180816,24.70,867.15,0,24.11,-7.63,3.72,-1.67,4:27:17,34.171291N,-112.988686W,903.70,10.39,18
2181817,24.70,867.06,0,24.08,-8.86,3.62,-1.08,4:27:18,34.171276N,-112.988724W,903.20,9.81,18
2182818,24.70,867.06,0,24.01,-8.48,3.19,-1.49,4:27:19,34.171261N,-112.988777W,903.20,9.48,18
2183819,24.70,867.06,0,24.04,-8.67,4.24,-1.63,4:27:20,34.171238N,-112.988815W,902.70,10.52,18
2184820,24.71,867.33,0,24.07,-8.48,4.17,-1.27,4:27:21,34.171211N,-112.988861W,902.80,12.89,18
2185821,24.71,867.42,0,24.12,-8.64,4.77,-1.88,4:27:22,34.171188N,-112.988914W,902.90,14.35,18
2186822,24.71,867.60,0,24.07,-8.80,3.45,-1.00,4:27:23,34.171154N,-112.988968W,903.00,14.63,18
2187823,24.70,867.96,0,24.10,-8.08,4.68,-2.20,4:27:24,34.171120N,-112.989029W,903.00,14.69,18
2188824,24.70,867.96,0,24.10,-8.35,4.99,-2.24,4:27:25,34.171089N,-112.989098W,902.90,14.71,15
2189825,24.70,867.87,0,24.11,-8.83,4.36,-1.29,4:27:26,34.171055N,-112.989159W,902.90,15.63,14
2190826,24.70,867.87,0,24.06,-8.12,4.11,-0.93,4:27:27,34.171024N,-112.989197W,903.10,15.20,14
2191827,24.69,867.96,0,24.05,-8.33,4.49,-1.34,4:27:28,34.170979N,-112.989258W,902.80,15.92,15
2192828,24.69,867.87,0,24.09,-8.89,4.55,-1.32,4:27:29,34.170933N,-112.989326W,902.50,15.95,17
2193829,24.69,867.96,0,24.07,-8.31,4.37,-1.73,4:27:30,34.170879N,-112.989388W,902.30,16.22,16
2194830,24.69,867.78,0,24.07,-7.91,4.99,-2.52,4:27:31,34.170834N,-112.989441W,902.40,15.78,16
2195831,24.68,867.51,0,24.08,-8.68,4.85,-1.43,4:27:32,34.170773N,-112.989494W,902.00,15.83,17
2196832,24.67,867.42,0,24.08,-8.69,4.37,-2.15,4:27:33,34.170723N,-112.989532W,901.50,15.75,17
2197833,24.67,867.42,0,24.11,-8.40,4.70,-2.12,4:27:34,34.170670N,-112.989578W,901.00,15.79,17
2198834,24.67,867.33,0,24.07,-8.55,4.77,-2.73,4:27:35,34.170616N,-112.989616W,900.50,16.18,17
2199835,24.67,867.33,0,24.10,-8.45,4.97,-2.65,4:27:36,34.170559N,-112.989670W,899.70,16.62,17
2200836,24.67,867.06,0,24.07,-7.81,5.19,-2.93,4:27:37,34.170506N,-112.989708W,899.10,16.70,17
2201837,24.67,866.88,0,24.11,-8.07,5.85,-3.25,4:27:38,34.170452N,-112.989761W,899.40,16.33,17
2202838,24.66,866.70,0,24.09,-8.24,4.75,-3.17,4:27:39,34.170399N,-112.989815W,899.30,15.93,18
2203839,24.65,866.51,0,24.11,-8.82,4.10,-0.95,4:27:40,34.170357N,-112.989861W,899.10,15.41,18
2204840,24.64,866.24,0,24.10,-8.53,4.67,-1.16,4:27:41,34.170319N,-112.989914W,898.90,15.35,18
2205841,24.63,866.15,0,24.12,-7.70,4.00,-2.09,4:27:42,34.170288N,-112.989967W,899.00,15.14,18
2206842,24.63,866.06,0,24.04,-8.19,3.53,-2.02,4:27:43,34.170250N,-112.990028W,898.80,15.06,18
2207843,24.62,866.06,0,24.08,-9.24,4.96,-2.17,4:27:44,34.170208N,-112.990082W,899.00,15.07,18
2208844,24.62,866.15,0,24.07,-9.11,4.82,-2.07,4:27:45,34.170162N,-112.990128W,898.90,15.62,18
2209845,24.62,866.42,0,24.09,-5.90,2.92,-2.23,4:27:46,34.170120N,-112.990196W,899.20,16.44,18
2210846,24.61,866.33,0,24.02,-6.39,5.21,-1.41,4:27:47,34.170067N,-112.990234W,899.70,17.37,18
2211847,24.62,865.88,0,24.04,-6.69,6.01,1.20,4:27:48,34.170010N,-112.990295W,899.70,17.44,18
2212848,24.62,865.52,0,24.00,-6.71,3.64,-0.43,4:27:49,34.169960N,-112.990349W,899.40,15.50,18
2213849,24.62,865.16,0,24.02,-10.71,5.13,-1.79,4:27:50,34.169914N,-112.990387W,899.60,12.74,18
2214850,24.63,864.79,0,24.01,-8.81,2.89,-1.38,4:27:51,34.169872N,-112.990425W,899.40,11.39,18
2215851,24.63,864.70,0,24.04,-8.38,4.07,-1.34,4:27:52,34.169838N,-112.990448W,899.20,10.85,18
2216852,24.64,864.61,0,24.08,-9.42,4.80,-0.97,4:27:53,34.169796N,-112.990479W,899.40,13.36,18
2217853,24.64,864.70,0,24.04,-9.16,4.88,-0.35,4:27:54,34.169746N,-112.990517W,899.30,13.97,18
2218854,24.64,864.61,0,23.98,-7.89,4.20,-0.78,4:27:55,34.169697N,-112.990540W,899.20,14.21,17
2219855,24.64,864.43,0,24.07,-10.24,6.12,-2.80,4:27:56,34.169643N,-112.990578W,899.80,14.58,17
2220856,24.65,864.25,0,23.98,-9.18,5.44,-2.49,4:27:57,34.169590N,-112.990593W,899.90,15.26,14
2221857,24.65,864.25,0,23.99,-8.63,4.54,-1.89,4:27:58,34.169537N,-112.990616W,899.90,15.33,14
2222858,24.65,864.34,0,24.01,-8.80,4.47,-2.84,4:27:59,34.169483N,-112.990646W,899.90,15.01,16
2223859,24.65,864.34,0,24.02,-9.32,4.90,-2.09,4:28:0,34.169426N,-112.990692W,899.70,15.43,18
2224860,24.65,864.43,0,24.00,-8.16,3.75,-0.81,4:28:1,34.169373N,-112.990730W,899.20,15.40,18
2225861,24.66,864.34,0,24.01,-8.56,4.46,-1.35,4:28:2,34.169319N,-112.990799W,899.00,16.18,18
2226862,24.66,864.43,0,23.98,-7.87,3.70,-0.96,4:28:3,34.169266N,-112.990860W,899.00,16.92,18
2227863,24.66,864.43,0,24.06,-9.18,4.08,-0.48,4:28:4,34.169205N,-112.990913W,899.00,17.62,18
2228864,24.67,864.25,0,24.07,-8.73,4.44,-0.89,4:28:5,34.169151N,-112.990974W,898.80,17.59,18
2229865,24.67,864.07,0,24.02,-8.43,4.92,-0.62,4:28:6,34.169098N,-112.991028W,898.50,17.51,18
2230866,24.67,863.71,0,24.04,-8.29,6.19,-0.05,4:28:7,34.169044N,-112.991089W,898.20,17.01,18
2231867,24.68,863.16,0,23.99,-8.81,4.46,-2.14,4:28:8,34.168999N,-112.991142W,897.90,14.73,18
2232868,24.68,862.80,0,24.05,-7.08,4.52,-2.37,4:28:9,34.168957N,-112.991196W,897.60,11.57,18
2233869,24.69,862.71,0,24.00,-7.32,2.98,-2.53,4:28:10,34.168926N,-112.991234W,897.30,9.51,18
2234870,24.69,862.62,0,24.02,-8.09,4.87,-2.64,4:28:11,34.168903N,-112.991241W,898.10,8.95,18
2235871,24.69,862.53,0,23.93,-7.16,4.15,-1.56,4:28:12,34.168880N,-112.991280W,897.30,11.82,18
2236872,24.70,862.26,0,23.99,-8.03,4.99,-2.75,4:28:13,34.168850N,-112.991333W,897.10,12.15,18
2237873,24.70,862.17,0,23.98,-7.46,3.44,-0.81,4:28:14,34.168823N,-112.991371W,896.70,11.69,18
2238874,24.70,861.99,0,23.98,-9.28,4.77,-1.30,4:28:15,34.168800N,-112.991425W,896.20,11.14,18
2239875,24.70,861.99,0,23.95,-8.55,3.14,-0.24,4:28:16,34.168770N,-112.991463W,895.90,10.89,18
2240876,24.70,861.99,0,23.96,-6.84,4.79,-1.39,4:28:17,34.168736N,-112.991501W,896.00,10.65,18
2241877,24.70,861.81,0,23.98,-6.92,4.15,-1.89,4:28:18,34.168697N,-112.991516W,896.70,12.51,18
2242878,24.70,861.72,0,23.99,-7.75,4.45,-3.48,4:28:19,34.168652N,-112.991539W,896.30,11.90,18
2243879,24.70,861.44,0,23.98,-8.23,4.60,-1.12,4:28:20,34.168610N,-112.991562W,895.40,12.20,18
2244880,24.70,861.26,0,24.01,-8.76,4.25,-0.92,4:28:21,34.168564N,-112.991600W,895.20,12.93,18
2245881,24.70,861.08,0,24.02,-8.64,3.97,0.08,4:28:22,34.168514N,-112.991631W,895.40,13.24,18
2246882,24.70,860.99,0,24.06,-7.25,3.25,-0.10,4:28:23,34.168465N,-112.991653W,894.90,13.28,18
2247883,24.70,860.81,0,23.99,-9.00,3.47,-3.21,4:28:24,34.168411N,-112.991676W,894.80,13.73,18
2248884,24.71,860.81,0,24.01,-8.65,4.57,-0.25,4:28:25,34.168365N,-112.991707W,894.70,13.66,16
2249885,24.71,860.81,0,23.98,-6.99,5.09,-2.63,4:28:26,34.168274N,-112.991707W,894.60,17.13,15
2250886,24.71,860.81,0,23.97,-9.74,3.84,-0.93,4:28:27,34.168232N,-112.991722W,895.40,13.19,13
2251887,24.71,860.81,0,24.01,-8.34,4.65,-2.34,4:28:28,34.168194N,-112.991730W,895.70,11.96,14
2252888,24.72,860.90,0,23.98,-7.82,4.89,-1.47,4:28:29,34.168152N,-112.991760W,896.00,12.36,15
2253889,24.72,860.90,0,23.98,-7.63,3.87,-2.27,4:28:30,34.168114N,-112.991798W,896.10,12.67,16
2254890,24.73,861.17,0,24.01,-7.51,4.25,-1.97,4:28:31,34.168072N,-112.991837W,895.90,13.18,14
2255891,24.73,861.17,0,23.97,-8.69,4.37,-1.07,4:28:32,34.168041N,-112.991875W,896.20,13.26,17
2256892,24.73,861.08,0,23.98,-10.05,4.40,-0.75,4:28:33,34.168015N,-112.991920W,894.60,14.11,18
2257893,24.74,860.90,0,23.98,-9.84,5.53,-1.14,4:28:34,34.167988N,-112.991974W,894.60,14.36,18
2258894,24.74,860.81,0,24.00,-8.98,4.65,-1.79,4:28:35,34.167950N,-112.992035W,894.70,14.97,18
2259895,24.74,860.99,0,23.98,-8.59,4.49,-2.37,4:28:36,34.167900N,-112.992073W,894.50,15.78,18
2260896,24.75,860.99,0,24.01,-8.31,3.79,-0.83,4:28:37,34.167850N,-112.992126W,893.90,16.19,18
2261897,24.75,860.90,0,23.98,-8.57,4.56,-2.36,4:28:38,34.167797N,-112.992180W,894.40,16.92,18
2262898,24.75,860.90,0,23.99,-7.92,4.66,-2.71,4:28:39,34.167736N,-112.992233W,893.90,17.47,18
2263899,24.76,860.90,0,23.99,-7.52,4.58,-1.86,4:28:40,34.167679N,-112.992294W,893.10,17.82,17
2264900,24.76,860.54,0,23.96,-9.77,4.48,-2.52,4:28:41,34.167625N,-112.992355W,893.00,17.77,18
2265901,24.76,860.54,0,23.99,-10.94,5.14,-0.34,4:28:42,34.167576N,-112.992409W,893.30,17.51,18
2266902,24.77,860.45,0,23.98,-8.63,4.69,-0.94,4:28:43,34.167519N,-112.992470W,893.30,17.98,18
2267903,24.77,860.27,0,24.01,-8.37,5.00,-1.86,4:28:44,34.167461N,-112.992523W,893.50,18.06,18
2268904,24.77,860.18,0,24.00,-8.99,4.96,-1.33,4:28:45,34.167408N,-112.992577W,893.70,17.83,18
2269905,24.78,860.09,0,23.98,-9.15,5.04,-0.74,4:28:46,34.167355N,-112.992630W,893.60,17.88,18
2270906,24.78,859.82,0,24.01,-9.24,5.10,0.42,4:28:47,34.167297N,-112.992676W,893.50,17.69,18
2271907,24.79,859.73,0,23.97,-8.10,4.95,-1.19,4:28:48,34.167240N,-112.992729W,893.30,17.37,18
2272908,24.79,859.45,0,23.97,-8.80,5.17,-1.31,4:28:49,34.167179N,-112.992783W,892.90,17.16,18
2273909,24.80,859.27,0,23.99,-8.95,4.57,-1.67,4:28:50,34.167122N,-112.992828W,892.50,16.55,18
2274910,24.80,859.18,0,23.95,-9.02,3.69,0.25,4:28:51,34.167068N,-112.992882W,892.00,15.92,18
2275911,24.80,859.00,0,24.00,-8.51,3.95,0.63,4:28:52,34.167019N,-112.992920W,892.30,15.46,18
2276912,24.81,858.91,0,23.98,-9.29,4.39,1.40,4:28:53,34.166962N,-112.992950W,892.20,15.75,18
2277913,24.82,858.64,0,24.00,-9.46,3.80,-1.47,4:28:54,34.166908N,-112.992989W,892.20,14.54,17
2278914,24.82,858.55,0,23.99,-7.91,3.76,-2.40,4:28:56,34.166794N,-112.993027W,892.30,14.34,16
2279915,24.83,858.55,0,23.98,-8.57,4.49,-2.17,4:28:57,34.166710N,-112.992996W,892.50,15.34,15
2280916,24.83,858.55,0,23.96,-8.21,4.52,-2.61,4:28:57,34.166710N,-112.992996W,892.50,17.79,15
2281917,24.83,858.55,0,23.97,-8.10,4.87,-2.56,4:28:58,34.166645N,-112.993011W,892.70,18.16,17
2282918,24.83,858.55,0,23.98,-8.07,4.56,-2.40,4:28:59,34.166576N,-112.993027W,893.00,18.75,18
2283919,24.84,858.37,0,23.98,-8.79,5.00,-2.59,4:29:0,34.166504N,-112.993034W,893.00,18.42,18
2284920,24.84,858.28,0,23.97,-8.44,3.63,-0.47,4:29:1,34.166428N,-112.993050W,893.10,18.38,18
2285921,24.85,858.10,0,23.97,-10.08,4.58,-1.26,4:29:2,34.166348N,-112.993065W,893.00,18.34,18
2286922,24.85,857.73,0,23.96,-8.84,6.43,-2.50,4:29:3,34.166271N,-112.993073W,893.40,17.92,17
2287923,24.85,857.55,0,23.98,-6.81,4.49,-3.12,4:29:4,34.166203N,-112.993073W,894.00,17.96,17
2288924,24.86,857.64,0,23.96,-6.96,3.70,-3.06,4:29:5,34.166126N,-112.993073W,893.90,17.90,18
2289925,24.86,857.64,0,23.98,-8.42,5.26,-2.93,4:29:6,34.166050N,-112.993103W,893.30,18.11,18
2290926,24.86,857.92,0,23.96,-8.52,5.05,-2.42,4:29:7,34.165985N,-112.993141W,892.90,18.16,18
2291927,24.86,858.01,0,23.98,-8.55,5.00,-3.41,4:29:8,34.165924N,-112.993187W,893.00,19.10,17
2292928,24.86,858.01,0,23.98,-8.46,5.08,-3.00,4:29:9,34.165871N,-112.993240W,892.70,18.43,18
2293929,24.87,858.01,0,23.98,-9.49,4.91,-1.99,4:29:10,34.165825N,-112.993317W,892.20,18.69,18
2294930,24.87,857.83,0,23.98,-8.32,4.77,-2.69,4:29:11,34.165779N,-112.993393W,891.40,18.67,18
2295931,24.87,857.73,0,23.98,-7.99,4.39,-1.15,4:29:12,34.165741N,-112.993469W,890.90,19.12,18
2296932,24.88,857.83,0,23.98,-7.93,4.16,-0.85,4:29:13,34.165699N,-112.993561W,890.60,18.72,18
2297933,24.88,857.83,0,23.95,-7.26,3.63,-1.20,4:29:14,34.165661N,-112.993637W,890.00,18.52,18
2298934,24.88,857.55,0,23.98,-9.22,2.65,-0.94,4:29:15,34.165619N,-112.993713W,889.70,18.60,18
2299935,24.88,857.46,0,23.95,-9.45,2.98,-0.42,4:29:16,34.165569N,-112.993782W,888.70,18.53,18
2300936,24.88,857.37,0,23.98,-7.42,4.32,-2.02,4:29:17,34.165512N,-112.993843W,888.40,20.53,17
2301937,24.88,857.28,0,23.98,-8.46,4.14,-1.75,4:29:18,34.165447N,-112.993904W,889.40,22.67,18
2302938,24.88,857.10,0,23.95,-9.02,5.26,-2.38,4:29:19,34.165371N,-112.993980W,889.50,23.31,18
2303939,24.88,856.83,0,23.95,-8.27,5.26,-2.48,4:29:20,34.165295N,-112.994049W,888.60,22.97,18
2304940,24.89,856.65,0,23.96,-9.33,4.49,-1.28,4:29:21,34.165226N,-112.994125W,888.90,23.01,18
2305941,24.89,856.74,0,23.95,-8.38,4.38,-1.75,4:29:22,34.165138N,-112.994186W,888.90,23.04,17
2306942,24.89,856.65,0,23.98,-7.39,4.43,-1.25,4:29:23,34.165066N,-112.994263W,889.10,23.42,18
2307943,24.90,856.47,0,23.95,-8.68,3.67,0.81,4:29:24,34.165009N,-112.994339W,889.20,24.34,18
2308944,24.90,856.29,0,23.97,-9.07,4.31,-0.21,4:29:26,34.164890N,-112.994545W,892.00,24.41,17
2309945,24.90,856.20,0,23.98,-8.51,4.55,-2.20,4:29:27,34.164829N,-112.994614W,891.90,27.97,12
2310946,24.90,856.02,0,24.00,-6.81,4.65,-3.02,4:29:28,34.164768N,-112.994690W,892.20,22.62,12
2311947,24.91,855.83,0,23.98,-8.60,5.23,-3.28,4:29:29,34.164707N,-112.994766W,891.50,22.58,14
2312948,24.91,855.65,4294967295,23.97,-10.92,5.78,-1.21,4:29:30,34.164650N,-112.994843W,891.10,21.83,16
2313949,24.91,855.29,0,23.95,-10.19,3.53,2.68,4:29:31,34.164589N,-112.994919W,890.30,21.88,16
2314950,24.91,855.11,0,23.97,-7.90,4.11,-2.73,4:29:32,34.164528N,-112.994995W,889.40,22.11,15
2315951,24.91,854.93,0,23.95,-8.26,5.22,-2.15,4:29:32,34.164528N,-112.994995W,889.40,20.94,15
2316952,24.92,854.84,0,23.96,-7.40,5.93,-4.08,4:29:33,34.164463N,-112.995056W,888.00,20.50,16
2317953,24.92,854.57,0,23.98,-6.60,5.74,-4.58,4:29:35,34.164341N,-112.995186W,886.50,20.14,17
2318954,24.92,854.30,0,23.96,-8.70,5.14,-1.90,4:29:36,34.164295N,-112.995262W,885.70,19.18,16
2319955,24.92,853.75,0,23.98,-7.54,4.10,-1.47,4:29:36,34.164295N,-112.995262W,885.70,17.68,16
2320956,24.92,853.39,0,23.97,-8.50,3.92,1.33,4:29:38,34.164261N,-112.995392W,886.80,16.13,18
2321957,24.92,853.03,0,23.98,-8.00,3.85,0.38,4:29:38,34.164261N,-112.995392W,886.80,15.39,18
2322958,24.91,853.03,0,23.95,-8.73,3.95,0.61,4:29:39,34.164242N,-112.995453W,885.80,14.40,18
2323959,24.90,852.85,0,23.96,-8.93,2.90,0.74,4:29:40,34.164223N,-112.995522W,886.20,13.72,18
2324960,24.89,852.85,0,23.99,-8.09,3.68,-1.56,4:29:42,34.164150N,-112.995613W,885.60,13.93,18
2325961,24.89,852.76,0,23.96,-8.93,4.15,-1.69,4:29:42,34.164150N,-112.995613W,885.60,14.38,18
2326962,24.89,852.76,0,23.98,-8.30,4.38,-1.49,4:29:43,34.164101N,-112.995636W,886.80,15.03,18
2327963,24.89,852.76,0,23.95,-9.71,4.44,-1.38,4:29:44,34.164051N,-112.995674W,886.80,16.10,18
2328964,24.89,852.49,0,23.99,-7.59,4.32,-2.28,4:29:46,34.163937N,-112.995766W,887.00,16.41,18
2329965,24.90,852.31,0,24.02,-7.71,4.25,-1.29,4:29:47,34.163887N,-112.995811W,886.50,16.61,18
2330966,24.90,852.13,0,24.02,-9.57,4.47,-0.22,4:29:47,34.163887N,-112.995811W,886.50,17.30,18
2331967,24.90,852.13,0,23.98,-8.93,2.83,-0.33,4:29:49,34.163815N,-112.995956W,885.20,17.24,18
2332968,24.89,852.04,0,24.01,-9.94,2.67,1.95,4:29:50,34.163769N,-112.996010W,884.50,16.97,18
2333969,24.88,852.04,0,23.99,-9.40,4.06,-1.97,4:29:50,34.163769N,-112.996010W,884.50,17.56,18
2334970,24.87,852.04,0,24.00,-8.32,4.31,-1.21,4:29:51,34.163712N,-112.996071W,884.40,18.96,18
2335971,24.86,852.04,0,23.97,-7.99,3.91,-0.59,4:29:53,34.163586N,-112.996201W,883.90,19.95,18
2336972,24.86,852.04,0,24.02,-8.63,5.11,-2.12,4:29:54,34.163513N,-112.996246W,883.70,20.43,18
2337973,24.86,852.04,0,23.99,-9.67,4.41,-1.23,4:29:54,34.163513N,-112.996246W,883.70,20.98,18
2338974,24.85,851.95,0,23.96,-8.71,4.22,-0.99,4:29:56,34.163380N,-112.996376W,883.20,21.01,13
2339975,24.84,851.85,0,23.96,-8.19,4.53,-2.30,4:29:57,34.163300N,-112.996407W,883.10,21.01,12
2340976,24.84,851.67,0,23.98,-7.80,4.92,-1.67,4:29:58,34.163208N,-112.996483W,882.20,20.40,13
2341977,24.84,851.49,0,23.98,-7.37,4.69,-3.55,4:29:59,34.163128N,-112.996521W,882.00,20.63,13
2342978,24.84,851.22,0,23.99,-9.15,5.04,-1.23,4:30:0,34.163052N,-112.996559W,881.20,19.96,14
2343979,24.84,850.77,0,23.96,-7.81,5.30,-1.80,4:30:1,34.162991N,-112.996605W,880.70,19.34,18
2344980,24.84,850.77,0,23.95,-8.82,5.09,-1.15,4:30:2,34.162937N,-112.996658W,879.90,18.13,17
2345981,24.84,850.50,0,23.96,-9.55,5.42,-1.41,4:30:3,34.162891N,-112.996727W,879.30,17.73,17
2346982,24.84,850.41,0,23.98,-7.90,3.57,-1.01,4:30:4,34.162842N,-112.996773W,878.90,17.38,18
2347983,24.83,850.14,0,23.96,-8.17,4.05,-0.39,4:30:5,34.162788N,-112.996811W,879.10,17.30,18
2348984,24.82,849.78,0,23.96,-8.91,5.15,-2.39,4:30:6,34.162724N,-112.996849W,878.50,17.83,18
2349985,24.81,849.59,0,23.98,-9.18,5.38,-1.19,4:30:7,34.162651N,-112.996880W,878.40,18.20,18
2350986,24.81,849.32,0,23.98,-7.86,4.34,-1.81,4:30:8,34.162594N,-112.996918W,879.80,18.54,18
2351987,24.81,849.05,0,23.96,-9.06,4.51,-1.96,4:30:9,34.162533N,-112.996956W,880.50,18.34,18
2352988,24.80,848.87,0,23.96,-8.17,5.47,-0.84,4:30:10,34.162472N,-112.997017W,881.50,18.34,18
2353989,24.80,848.69,0,23.96,-8.54,4.94,-0.72,4:30:11,34.162418N,-112.997078W,881.60,18.53,18
2354990,24.80,848.42,0,23.98,-8.52,5.07,-2.09,4:30:12,34.162369N,-112.997131W,881.60,17.45,17
2355991,24.80,848.24,0,23.96,-7.23,5.01,-2.80,4:30:13,34.162327N,-112.997185W,881.80,15.79,18
2356992,24.81,847.88,0,23.95,-8.16,4.91,-2.51,4:30:14,34.162296N,-112.997246W,881.80,15.06,18
2357993,24.81,847.70,0,23.95,-7.48,5.83,-2.24,4:30:15,34.162270N,-112.997314W,882.20,14.63,18
2358994,24.81,847.43,0,23.96,-7.48,4.06,-1.90,4:30:16,34.162262N,-112.997360W,882.60,13.62,18
2359995,24.81,847.24,0,23.94,-8.48,5.93,-2.25,4:30:17,34.162262N,-112.997414W,882.70,11.52,18
2360996,24.80,847.06,0,23.97,-8.10,4.90,-1.95,4:30:18,34.162266N,-112.997452W,883.20,9.47,18
2361997,24.80,846.97,0,23.97,-8.60,6.00,-1.99,4:30:19,34.162266N,-112.997490W,883.00,7.44,18
2362998,24.79,846.79,0,23.98,-7.75,3.40,-1.18,4:30:20,34.162262N,-112.997528W,882.30,7.09,18
2363999,24.79,846.79,0,23.95,-8.61,4.08,-2.12,4:30:21,34.162254N,-112.997566W,882.20,6.74,17
2365000,24.78,846.70,0,23.97,-8.04,4.44,-3.13,4:30:22,34.162235N,-112.997604W,881.90,8.53,18
2366001,24.78,846.70,0,23.96,-8.27,5.35,-2.39,4:30:23,34.162216N,-112.997643W,881.30,9.29,18
2367002,24.77,846.70,0,23.99,-8.00,5.08,-0.97,4:30:24,34.162193N,-112.997681W,881.30,9.61,17
2368003,24.77,846.61,0,23.94,-7.04,6.19,-0.98,4:30:25,34.162174N,-112.997719W,881.20,9.29,17
2369004,24.76,846.43,0,23.96,-7.84,5.77,-0.68,4:30:26,34.162148N,-112.997749W,881.20,9.83,15
2370005,24.76,846.25,0,23.98,-8.19,4.49,-1.37,4:30:27,34.162155N,-112.997772W,881.10,5.08,14
2371006,24.75,846.16,0,23.95,-8.55,5.16,-0.83,4:30:28,34.162140N,-112.997757W,880.80,5.08,15
2372007,24.75,845.98,0,23.99,-8.76,4.27,-1.29,4:30:29,34.162140N,-112.997757W,880.90,2.94,17
2373008,24.75,845.89,0,23.96,-8.40,4.33,-1.30,4:30:30,34.162140N,-112.997757W,880.80,0.12,17
2374009,24.75,845.89,0,23.96,-8.67,4.43,-1.06,4:30:31,34.162140N,-112.997757W,880.90,0.05,17
2375010,24.75,845.80,0,23.98,-8.71,4.47,-1.40,4:30:32,34.162140N,-112.997757W,880.80,0.01,17
2376011,24.75,845.80,0,23.94,-8.64,4.45,-1.37,4:30:33,34.162140N,-112.997757W,880.80,0.03,17
2377012,24.76,845.89,0,23.98,-8.47,4.44,-1.21,4:30:34,34.162140N,-112.997757W,880.80,0.02,17
2378013,24.76,845.80,0,23.98,-8.46,4.37,-1.02,4:30:35,34.162140N,-112.997757W,880.80,0.01,17
2379014,24.76,845.71,0,24.00,-8.58,4.42,-1.18,4:30:36,34.162140N,-112.997757W,880.80,0.00,17
2380015,24.76,845.71,0,23.95,-8.70,4.47,-1.23,4:30:37,34.162140N,-112.997757W,880.80,0.01,18
2381016,24.76,845.71,0,23.95,-8.90,4.39,-1.20,4:30:38,34.162140N,-112.997757W,880.80,0.01,17
2382017,24.76,845.80,0,23.98,-8.42,4.32,-1.18,4:30:39,34.162140N,-112.997757W,880.80,0.01,18
2383018,24.77,845.80,0,23.98,-8.50,4.24,-1.23,4:30:40,34.162140N,-112.997757W,880.80,0.02,18
2384019,24.77,845.80,0,23.95,-8.46,4.32,-1.28,4:30:41,34.162140N,-112.997757W,880.80,0.01,18
2385020,24.77,845.80,0,23.95,-8.57,4.40,-1.29,4:30:42,34.162140N,-112.997757W,880.80,0.01,17
2386021,24.77,845.71,0,23.97,-8.60,4.53,-1.27,4:30:43,34.162140N,-112.997757W,880.70,0.01,17
2387022,24.77,845.71,0,23.97,-8.50,4.41,-1.17,4:30:44,34.162140N,-112.997757W,880.80,0.00,17
2388023,24.77,845.71,0,23.96,-8.76,4.37,-1.23,4:30:45,34.162140N,-112.997757W,880.70,0.02,17
2389024,24.77,845.80,0,23.93,-8.52,4.43,-1.12,4:30:46,34.162140N,-112.997757W,880.70,0.01,17
2390025,24.77,845.71,0,23.93,-8.44,4.41,-1.23,4:30:47,34.162140N,-112.997757W,880.70,0.00,17
2391026,24.77,845.71,0,23.95,-8.68,4.51,-1.12,4:30:48,34.162140N,-112.997757W,880.70,0.00,17
2392027,24.77,845.71,0,23.96,-8.53,4.39,-1.21,4:30:49,34.162140N,-112.997757W,880.70,0.00,17
2393028,24.78,845.62,0,23.95,-8.52,4.52,-1.11,4:30:50,34.162140N,-112.997757W,880.70,0.00,17
2394029,24.78,845.62,0,23.97,-8.67,4.40,-1.23,4:30:51,34.162140N,-112.997757W,880.80,0.00,17
2395030,24.78,845.62,0,23.96,-8.68,4.40,-1.23,4:30:52,34.162140N,-112.997757W,880.80,0.00,17
2396031,24.78,845.62,0,23.95,-8.63,4.51,-1.24,4:30:53,34.162140N,-112.997757W,880.80,0.00,17
2397032,24.79,845.62,0,23.95,-8.60,4.36,-0.98,4:30:54,34.162140N,-112.997757W,880.80,0.01,18
2398033,24.79,845.62,0,23.95,-8.34,4.29,-1.30,4:30:55,34.162144N,-112.997757W,880.80,0.74,13
2399034,24.79,845.62,0,23.95,-8.48,4.54,-1.34,
2400035,24.80,845.62,0,23.95,-8.30,4.40,-0.99,4:30:57,34.162155N,-112.997757W,880.70,0.87,13
2401036,24.80,845.62,0,23.96,-9.04,4.50,-1.18,4:30:58,34.162148N,-112.997757W,880.80,0.33,13
2402037,24.80,845.62,0,23.96,-8.55,4.44,-1.34,4:30:59,34.162148N,-112.997757W,880.80,0.49,14
