time_since_start,bme_temp,bme_alt,uv,ism_temp,acc_x,acc_y,acc_z,gps_time,latitude,longitude,gps_alt,speed,sats
8409570,7.45,21589.93,351,-12.70,-0.11,-0.32,9.85,12:51:40,34.057484N,-113.293633W,23324.10,15.85,17
8410571,7.39,21567.17,326,-12.68,-0.40,0.00,9.88,12:51:41,34.057491N,-113.293556W,23328.10,16.28,17
8411572,7.37,21555.83,358,-12.69,-0.31,-0.23,10.04,12:51:42,34.057499N,-113.293480W,23331.90,16.92,17
8412573,7.37,21642.93,340,-12.75,-0.43,-0.02,10.11,12:51:43,34.057503N,-113.293388W,23335.70,16.94,17
8413574,7.37,21690.65,365,-12.72,0.01,-0.35,10.25,12:51:44,34.057507N,-113.293312W,23339.30,15.78,17
8414575,7.36,21763.78,382,-12.73,-0.05,-0.43,10.30,12:51:45,34.057507N,-113.293236W,23343.00,14.69,17
8415576,7.34,21747.60,380,-12.73,-0.52,0.04,10.24,12:51:46,34.057503N,-113.293175W,23346.70,14.47,17
8416577,7.33,21439.54,364,-12.66,-0.06,0.14,10.18,12:51:47,34.057503N,-113.293091W,23350.70,14.05,17
8417578,7.72,21355.65,337,-12.63,-0.24,-0.26,9.93,12:51:48,34.057503N,-113.293030W,23354.80,12.93,17
8418579,8.04,21389.88,327,-12.65,-0.59,-0.16,9.76,12:51:49,34.057503N,-113.292976W,23359.00,11.83,17
8419580,7.88,21421.55,336,-12.63,0.05,-0.10,9.97,12:51:50,34.057503N,-113.292931W,23363.00,10.51,17
8420581,7.78,21454.81,347,-12.66,0.08,-0.27,10.18,12:51:51,34.057507N,-113.292877W,23366.90,8.85,17
8421582,7.72,21657.34,404,-12.71,-0.37,-0.54,10.23,12:51:52,34.057514N,-113.292839W,23370.60,6.92,17
8422583,7.64,21503.68,374,-12.64,0.09,-0.24,10.21,12:51:53,34.057522N,-113.292816W,23374.20,5.79,17
8423584,8.03,21496.67,352,-12.64,0.11,-0.32,10.16,12:51:54,34.057529N,-113.292786W,23378.00,5.36,17
8424585,8.04,21503.68,389,-12.64,-0.11,-0.35,10.15,12:51:55,34.057537N,-113.292778W,23381.90,5.58,17
8425586,7.91,21514.91,351,-12.59,-0.23,-0.12,10.08,12:51:56,34.057537N,-113.292732W,23386.00,6.04,17
8426587,7.81,21572.85,361,-12.60,-0.22,-0.25,10.05,12:51:57,34.057533N,-113.292709W,23390.20,6.70,17
8427588,7.72,21744.66,399,-12.64,-0.24,-0.52,9.92,12:51:58,34.057526N,-113.292686W,23394.40,6.64,17
8428589,7.65,21689.19,371,-12.64,-0.52,-0.04,9.74,12:51:59,34.057522N,-113.292656W,23398.40,5.66,17
8429590,7.69,21657.34,343,-12.60,-0.37,-0.06,9.82,12:52:0,34.057514N,-113.292633W,23402.40,4.64,17
8430591,7.64,21875.39,395,-12.60,-0.25,-0.07,10.00,12:52:1,34.057499N,-113.292610W,23406.10,5.06,17
8431592,7.61,21670.35,369,-12.59,0.13,-0.11,10.12,12:52:2,34.057487N,-113.292595W,23409.60,5.99,17
8432593,8.03,21638.61,328,-12.61,0.16,-0.33,10.22,12:52:3,34.057468N,-113.292572W,23412.80,7.00,17
8433594,7.94,21618.51,327,-12.63,-0.28,-0.38,10.24,12:52:4,34.057449N,-113.292534W,23416.10,8.52,17
8434595,7.86,21629.99,345,-12.54,-0.13,-0.14,10.18,12:52:5,34.057426N,-113.292503W,23419.60,9.75,17
8435596,7.77,21627.11,345,-12.59,0.02,-0.18,10.14,12:52:6,34.057407N,-113.292458W,23423.30,9.74,17
8436597,7.67,21731.47,382,-12.54,-0.04,-0.37,10.21,12:52:7,34.057388N,-113.292427W,23427.10,8.76,17
8437598,7.59,21842.41,360,-12.55,-0.14,-0.21,10.27,12:52:8,34.057369N,-113.292389W,23430.80,7.68,17
8438599,7.55,21904.05,350,-12.54,-0.45,0.07,10.18,12:52:9,34.057354N,-113.292366W,23434.70,6.84,17
8439600,7.53,21768.19,352,-12.56,-0.56,0.04,9.99,12:52:10,34.057339N,-113.292336W,23438.70,6.41,17
8440601,7.52,21505.08,10,-12.55,-0.41,0.14,9.86,12:52:11,34.057327N,-113.292313W,23442.80,6.33,17
8441602,7.72,21384.39,375,-12.55,-0.44,-0.29,9.83,12:52:12,34.057323N,-113.292274W,23446.80,6.57,17
8442603,7.69,21495.27,377,-12.54,-0.14,-0.39,9.89,12:52:13,34.057320N,-113.292252W,23450.70,6.58,17
8443604,7.67,21737.33,365,-12.55,-0.04,-0.48,9.85,12:52:14,34.057320N,-113.292213W,23454.30,5.99,17
8444605,7.67,21831.96,342,-12.52,-0.04,-0.22,9.93,12:52:15,34.057323N,-113.292183W,23457.70,4.68,17
8445606,7.68,21771.14,331,-12.50,-0.38,-0.09,10.15,12:52:16,34.057323N,-113.292175W,23460.90,3.22,17
8446607,7.69,21725.62,327,-12.60,-0.41,-0.53,10.31,12:52:17,34.057323N,-113.292160W,23463.90,2.47,17
8447608,7.69,21692.10,337,-12.50,0.07,-0.20,10.41,12:52:18,34.057323N,-113.292145W,23466.90,2.46,17
8448609,7.72,21811.11,338,-12.52,-0.66,-0.47,10.33,12:52:19,34.057320N,-113.292137W,23470.10,3.21,17
8449610,7.74,21762.30,338,-12.45,-0.15,-0.24,10.23,12:52:20,34.057316N,-113.292122W,23473.80,3.96,17
8450611,7.73,21718.32,414,-12.42,-0.33,-0.31,9.94,12:52:21,34.057312N,-113.292099W,23477.60,5.19,17
8451612,7.74,21589.93,430,-12.46,-0.49,-0.41,9.74,12:52:22,34.057304N,-113.292068W,23481.70,5.90,17
8452613,8.06,21413.27,408,-12.50,-0.15,-0.45,9.89,12:52:23,34.057297N,-113.292046W,23485.60,6.74,17
8453614,8.43,21348.84,397,-12.50,0.21,-0.23,10.11,12:52:24,34.057278N,-113.292023W,23489.20,7.80,17
8454615,8.32,21460.37,342,-12.49,-0.45,-0.44,10.17,12:52:25,34.057255N,-113.291985W,23492.70,8.78,17
8455616,8.23,21507.89,337,-12.50,-0.27,-0.60,10.16,12:52:26,34.057224N,-113.291954W,23496.10,9.00,17
8456617,8.10,21543.09,301,-12.50,-0.04,-0.45,10.24,12:52:27,34.057198N,-113.291931W,23499.60,9.20,17
8457618,7.89,21558.66,326,-12.48,-0.45,-0.31,10.33,12:52:28,34.057167N,-113.291901W,23503.20,8.56,17
8458619,7.78,21571.43,360,-12.44,-0.47,-0.20,10.28,12:52:29,34.057144N,-113.291878W,23506.90,7.32,17
8459620,7.74,21585.65,326,-12.45,-0.32,-0.21,10.20,12:52:30,34.057125N,-113.291855W,23510.70,5.90,17
8460621,7.73,21597.06,301,-12.43,-0.55,-0.18,10.04,12:52:31,34.057102N,-113.291840W,23514.80,5.26,17
8461622,7.72,21609.92,321,-12.42,-0.57,-0.24,9.93,12:52:32,34.057083N,-113.291824W,23519.10,5.04,17
8462623,7.70,21611.35,304,-12.47,-0.10,-0.33,9.88,12:52:33,34.057064N,-113.291824W,23523.30,4.49,17
8463624,7.72,21618.51,292,-12.44,0.13,-0.40,9.91,12:52:34,34.057049N,-113.291840W,23527.40,3.90,17
8464625,7.72,21621.38,309,-12.43,0.01,-0.22,9.91,12:52:35,34.057034N,-113.291840W,23531.30,3.38,17
8465626,7.75,21622.81,348,-12.42,-0.57,-0.47,9.99,12:52:36,34.057026N,-113.291855W,23535.00,2.68,17
8466627,7.78,21631.42,313,-12.43,-0.23,-0.24,10.10,12:52:37,34.057022N,-113.291862W,23538.50,2.42,17
8467628,7.83,21631.42,371,-12.41,-0.37,-0.25,10.11,12:52:38,34.057022N,-113.291878W,23541.90,2.79,17
8468629,7.89,21632.86,340,-12.41,-0.61,-0.24,10.05,12:52:39,34.057026N,-113.291893W,23545.20,2.58,17
8469630,7.95,21637.17,321,-12.40,-0.49,-0.45,10.08,12:52:40,34.057030N,-113.291901W,23548.60,2.09,17
8470631,7.99,21641.49,302,-12.39,0.07,-0.19,10.18,12:52:41,34.057034N,-113.291916W,23552.00,2.05,17
8471632,8.02,21640.05,348,-12.41,-0.03,0.10,10.14,12:52:42,34.057037N,-113.291916W,23555.40,2.07,17
8472633,8.04,21642.93,311,-12.39,-0.36,-0.19,10.19,12:52:43,34.057045N,-113.291931W,23558.90,2.04,17
8473634,8.04,21645.81,323,-12.42,-0.38,-0.33,10.17,12:52:44,34.057053N,-113.291931W,23562.40,2.11,17
8474635,8.05,21650.13,361,-12.40,-0.33,-0.28,10.05,12:52:45,34.057064N,-113.291931W,23566.00,2.76,17
8475636,8.06,21629.99,389,-12.41,-0.34,-0.28,9.98,12:52:46,34.057072N,-113.291916W,23569.70,2.98,17
8476637,8.22,21592.78,384,-12.41,0.18,-0.59,10.01,12:52:47,34.057083N,-113.291901W,23573.40,3.74,17
8477638,8.44,21310.81,387,-12.38,0.07,-0.10,10.09,12:52:48,34.057083N,-113.291878W,23576.90,5.55,17
8478639,8.51,21470.12,336,-12.39,-0.31,-0.67,10.12,12:52:49,34.057076N,-113.291855W,23580.40,6.74,17
8479640,8.44,21538.86,337,-12.42,0.22,-0.50,10.08,12:52:50,34.057068N,-113.291817W,23583.90,7.46,17
8480641,8.33,21574.27,325,-12.41,-0.15,-0.17,10.09,12:52:51,34.057064N,-113.291779W,23587.50,8.13,17
8481642,8.26,21599.91,345,-12.39,-0.43,-0.29,10.07,12:52:52,34.057056N,-113.291740W,23591.00,8.09,17
8482643,8.24,21618.51,311,-12.37,-0.36,-0.17,10.03,12:52:53,34.057049N,-113.291702W,23594.40,7.44,17
8483644,8.22,21637.17,360,-12.39,-0.54,-0.16,9.99,12:52:54,34.057045N,-113.291672W,23597.90,7.17,17
8484645,8.22,21663.12,350,-12.39,-0.88,-0.07,10.01,12:52:55,34.057037N,-113.291634W,23601.40,7.96,17
8485646,8.23,21872.39,366,-12.38,-0.43,0.08,10.05,12:52:56,34.057022N,-113.291595W,23604.80,8.95,17
8486647,8.22,21797.75,379,-12.38,-0.75,-0.37,10.15,12:52:57,34.057011N,-113.291557W,23608.10,9.56,17
8487648,8.22,21705.19,314,-12.39,-0.60,-0.02,10.24,12:52:58,34.056999N,-113.291504W,23611.40,9.96,17
8488649,8.56,21695.01,316,-12.39,-0.22,-0.21,10.27,12:52:59,34.056984N,-113.291458W,23614.70,10.37,17
8489650,8.50,21700.82,336,-12.39,-0.33,-0.18,10.30,12:53:0,34.056973N,-113.291405W,23618.20,10.31,17
8490651,8.46,21775.57,347,-12.38,-0.04,-0.43,10.28,12:53:1,34.056965N,-113.291367W,23622.00,9.92,17
8491652,8.41,21967.95,375,-12.38,-0.25,-0.04,10.16,12:53:2,34.056961N,-113.291313W,23625.90,10.16,17
8492653,8.38,22174.01,400,-12.39,-0.06,0.25,10.03,12:53:3,34.056953N,-113.291267W,23630.00,10.89,17
8493654,8.34,21896.49,439,-12.38,-0.09,0.08,9.93,12:53:4,34.056946N,-113.291214W,23634.10,11.44,17
8494655,8.33,21728.55,356,-12.38,-0.61,-0.05,9.89,12:53:5,34.056934N,-113.291145W,23638.20,11.39,17
8495656,8.75,21727.08,331,-12.38,-0.08,-0.00,9.84,12:53:6,34.056923N,-113.291107W,23642.10,11.08,17
8496657,8.66,21727.08,341,-12.39,-0.31,-0.22,9.80,12:53:7,34.056904N,-113.291061W,23645.80,10.75,17
8497658,8.59,21830.46,405,-12.38,-0.48,-0.46,9.77,12:53:8,34.056885N,-113.291008W,23649.40,9.66,17
8498659,8.52,21803.69,362,-12.39,-0.49,-0.11,9.90,12:53:9,34.056870N,-113.290970W,23652.60,8.03,17
8499660,8.50,21788.87,352,-12.37,-0.49,-0.18,10.11,12:53:10,34.056854N,-113.290947W,23655.40,7.14,17
8500661,8.48,21825.99,352,-12.38,-0.83,0.10,10.18,12:53:11,34.056839N,-113.290909W,23658.20,7.70,17
8501662,8.47,22009.45,371,-12.38,-0.60,-0.06,10.28,12:53:12,34.056824N,-113.290878W,23661.00,8.20,17
8502663,8.47,21992.50,371,-12.38,-0.44,-0.46,10.38,12:53:13,34.056805N,-113.290840W,23663.90,8.59,17
8503664,8.46,22029.54,327,-12.38,-0.14,-0.42,10.44,12:53:14,34.056786N,-113.290802W,23667.00,9.39,17
8504665,8.47,21958.78,328,-12.38,-0.48,-0.12,10.46,12:53:15,34.056767N,-113.290764W,23670.50,10.12,17
8505666,8.45,21907.07,325,-12.38,0.01,-0.21,10.44,12:53:16,34.056747N,-113.290710W,23674.10,10.14,17
8506667,8.44,21861.88,312,-12.37,-0.42,0.02,10.29,12:53:17,34.056732N,-113.290672W,23678.20,9.89,17
8507668,8.45,21674.69,381,-12.37,-0.32,-0.50,10.02,12:53:18,34.056717N,-113.290627W,23682.60,10.55,17
8508669,8.92,21413.27,403,-12.37,0.22,-0.13,9.71,12:53:19,34.056702N,-113.290573W,23687.20,12.03,17
8509670,9.13,21572.85,347,-12.38,-0.64,-0.02,9.56,12:53:20,34.056686N,-113.290512W,23691.80,13.72,17
8510671,8.98,21731.47,341,-12.37,-0.74,-0.36,9.74,12:53:21,34.056667N,-113.290443W,23696.30,15.71,17
8511672,8.85,21851.38,343,-12.37,-0.52,-0.12,10.09,12:53:22,34.056652N,-113.290367W,23700.20,17.89,17
8512673,8.76,21855.88,347,-12.38,-0.21,-0.22,10.27,12:53:23,34.056633N,-113.290276W,23703.70,19.08,17
8513674,8.68,21849.89,328,-12.38,0.34,-0.11,10.32,12:53:24,34.056622N,-113.290192W,23707.00,18.55,17
8514675,8.61,21833.45,325,-12.34,0.29,0.04,10.38,12:53:25,34.056606N,-113.290100W,23710.50,16.84,17
8515676,8.55,21817.06,364,-12.38,-0.72,-0.42,10.28,12:53:26,34.056595N,-113.290024W,23714.10,14.87,17
8516677,8.53,21805.17,346,-12.38,-0.09,-0.76,10.05,12:53:27,34.056587N,-113.289955W,23717.90,13.11,17
8517678,8.52,21754.95,84,-12.35,0.29,-0.20,9.74,12:53:28,34.056576N,-113.289894W,23722.00,11.73,17
8518679,8.77,21925.26,369,-12.36,-0.64,-0.35,9.66,12:53:29,34.056568N,-113.289841W,23726.20,11.04,17
8519680,8.71,22006.36,360,-12.37,0.13,-0.23,9.92,12:53:30,34.056553N,-113.289795W,23730.20,10.39,17
8520681,8.69,21954.19,323,-12.35,-0.12,0.09,10.11,12:53:31,34.056545N,-113.289757W,23733.70,9.50,17
8521682,8.65,21911.62,337,-12.31,-0.47,0.13,10.15,12:53:32,34.056534N,-113.289719W,23737.00,8.13,17
8522683,8.63,21878.40,336,-12.34,-0.14,-0.32,10.25,12:53:33,34.056530N,-113.289680W,23740.20,6.86,17
8523684,8.60,21854.38,327,-12.36,-0.40,-0.42,10.29,12:53:34,34.056526N,-113.289650W,23743.40,5.65,17
8524685,8.58,21836.43,309,-12.36,-0.40,-0.42,10.26,12:53:35,34.056519N,-113.289627W,23746.90,5.57,17
8525686,8.60,21831.96,345,-12.33,0.09,-0.15,10.22,12:53:36,34.056515N,-113.289597W,23750.50,6.39,17
8526687,8.61,21575.69,10,-12.34,-0.39,-0.05,10.01,12:53:37,34.056519N,-113.289558W,23754.20,7.71,17
8527688,8.67,21413.27,367,-12.29,-0.14,-0.48,9.84,12:53:38,34.056519N,-113.289520W,23758.00,8.32,17
8528689,9.08,21453.42,361,-12.26,-0.19,-0.63,9.70,12:53:39,34.056526N,-113.289482W,23761.80,8.63,17
8529690,8.97,21548.75,311,-12.28,-0.06,-0.64,9.64,12:53:40,34.056534N,-113.289444W,23765.60,8.99,17
8530691,8.88,21608.49,335,-12.27,0.01,-0.44,9.91,12:53:41,34.056549N,-113.289406W,23769.00,9.20,17
8531692,8.83,21650.13,361,-12.32,-0.23,-0.37,10.08,12:53:42,34.056564N,-113.289368W,23772.00,9.22,17
8532693,8.92,21879.91,370,-12.27,-0.04,-0.19,10.21,12:53:43,34.056583N,-113.289330W,23774.60,9.29,17
8533694,8.88,21928.30,338,-12.29,-0.35,-0.26,10.25,12:53:44,34.056606N,-113.289291W,23777.30,9.47,17
8534695,8.87,21922.23,338,-12.26,-0.51,-0.11,10.24,12:53:45,34.056625N,-113.289253W,23780.20,9.52,17
8535696,8.85,21961.83,357,-12.25,-0.23,-0.11,10.24,12:53:46,34.056644N,-113.289215W,23783.20,8.97,17
8536697,8.82,21937.43,350,-12.29,-0.08,-0.30,10.18,12:53:47,34.056660N,-113.289177W,23786.40,8.37,17
8537698,8.75,22006.36,345,-12.25,-0.46,-0.70,10.13,12:53:48,34.056675N,-113.289139W,23789.70,8.29,17
8538699,8.68,21901.03,403,-12.29,-0.60,-0.21,10.05,12:53:49,34.056694N,-113.289101W,23793.00,8.24,17
8539700,8.66,21571.43,434,-12.23,-0.02,-0.23,9.92,12:53:50,34.056717N,-113.289078W,23796.50,8.01,17
8540701,8.76,21352.93,18,-12.23,-0.09,-0.31,9.87,12:53:51,34.056740N,-113.289047W,23799.90,7.77,17
8541702,8.83,21389.88,372,-12.23,-0.22,-0.44,9.95,12:53:52,34.056763N,-113.289009W,23803.10,7.75,17
8542703,9.17,21488.27,376,-12.27,-0.23,-0.19,10.05,12:53:53,34.056782N,-113.288986W,23806.20,7.18,17
8543704,9.20,21571.43,370,-12.25,-0.18,-0.44,10.08,12:53:54,34.056793N,-113.288963W,23809.20,6.45,17
8544705,9.14,21778.52,356,-12.19,-0.46,-0.36,10.09,12:53:55,34.056805N,-113.288933W,23812.10,5.99,17
8545706,9.11,21867.88,361,-12.20,-0.54,-0.28,10.14,12:53:56,34.056816N,-113.288910W,23815.00,6.26,17
8546707,9.10,21830.46,386,-12.21,-0.35,-0.25,10.15,12:53:57,34.056828N,-113.288879W,23818.00,6.54,17
8547708,9.10,21904.05,400,-12.19,-0.02,-0.26,10.15,12:53:58,34.056839N,-113.288857W,23821.00,6.83,17
8548709,9.12,21594.20,160,-12.23,-0.10,-0.28,10.12,12:53:59,34.056847N,-113.288818W,23824.10,7.49,17
8549710,9.21,21572.85,351,-12.24,-0.20,-0.29,10.09,12:54:0,34.056850N,-113.288780W,23827.20,8.41,17
8550711,9.59,21634.29,347,-12.22,-0.30,-0.22,10.10,12:54:1,34.056858N,-113.288742W,23830.30,9.10,17
8551712,9.65,21690.65,327,-12.24,-0.36,-0.19,10.12,12:54:2,34.056858N,-113.288689W,23833.40,10.00,17
8552713,9.58,21732.94,319,-12.17,-0.08,-0.53,10.18,12:54:3,34.056858N,-113.288643W,23836.60,11.06,17
8553714,9.53,21848.39,350,-12.16,-0.33,-0.47,10.16,12:54:4,34.056858N,-113.288589W,23839.90,11.94,17
8554715,9.47,21949.62,366,-12.13,-0.22,-0.14,10.13,12:54:5,34.056862N,-113.288528W,23843.30,12.61,17
8555716,9.41,22026.45,357,-12.16,-0.19,-0.04,10.15,12:54:6,34.056866N,-113.288460W,23846.70,12.86,17
8556717,9.36,22249.39,391,-12.16,-0.19,-0.06,10.17,12:54:7,34.056873N,-113.288399W,23850.30,13.06,17
8557718,9.33,22175.60,394,-12.14,-0.26,-0.25,10.10,12:54:8,34.056885N,-113.288330W,23853.80,12.80,17
8558719,9.33,21778.52,314,-12.16,-0.28,-0.42,10.13,12:54:9,34.056885N,-113.288269W,23857.40,12.06,17
8559720,9.45,21632.86,358,-12.12,-0.36,-0.14,10.13,12:54:10,34.056889N,-113.288216W,23861.00,11.53,17
8560721,9.93,21671.80,299,-12.12,-0.22,0.00,10.12,12:54:11,34.056892N,-113.288170W,23864.60,11.28,17
8561722,10.02,21718.32,358,-12.14,-0.04,-0.18,10.06,12:54:12,34.056900N,-113.288116W,23868.30,10.98,17
8562723,9.90,21756.42,355,-12.04,-0.35,-0.16,9.97,12:54:13,34.056904N,-113.288063W,23872.10,10.62,17
8563724,9.81,21790.35,338,-12.14,-0.52,-0.16,9.91,12:54:14,34.056908N,-113.288010W,23875.90,10.57,17
8564725,9.77,21990.96,374,-12.14,-0.28,-0.15,9.93,12:54:15,34.056915N,-113.287964W,23879.80,10.54,17
8565726,9.74,22234.87,380,-12.08,-0.08,-0.16,10.05,12:54:16,34.056919N,-113.287910W,23883.60,10.47,17
8566727,9.72,22322.60,381,-12.13,-0.25,-0.28,10.16,12:54:17,34.056919N,-113.287857W,23887.10,10.23,17
8567728,9.72,21954.19,9,-12.09,-0.33,-0.13,10.23,12:54:18,34.056915N,-113.287811W,23890.60,10.50,17
8568729,9.76,21668.90,9,-12.02,-0.51,0.09,10.27,12:54:19,34.056911N,-113.287758W,23894.00,10.98,17
8569730,9.88,21471.51,370,-12.07,-0.45,-0.16,10.26,12:54:20,34.056908N,-113.287704W,23897.50,11.29,17
8570731,10.20,21534.62,376,-12.03,-0.46,-0.33,10.23,12:54:21,34.056904N,-113.287651W,23901.30,11.50,17
8571732,10.39,21625.68,338,-12.07,-0.36,-0.39,10.13,12:54:22,34.056904N,-113.287590W,23905.30,11.88,17
8572733,10.27,21681.94,384,-12.02,-0.29,-0.34,10.02,12:54:23,34.056900N,-113.287537W,23909.40,12.24,17
8573734,10.29,21579.96,382,-12.03,-0.22,-0.45,9.96,12:54:24,34.056892N,-113.287476W,23913.60,12.30,17
8574735,10.68,21442.31,358,-12.04,-0.34,-0.27,9.91,12:54:25,34.056885N,-113.287422W,23917.80,12.61,17
8575736,10.99,21383.02,347,-12.00,-0.31,-0.11,9.84,12:54:26,34.056877N,-113.287346W,23921.80,13.22,17
8576737,11.22,21323.00,9,-12.02,-0.49,0.04,9.75,12:54:27,34.056870N,-113.287285W,23925.70,13.96,17
8577738,11.04,21235.55,374,-11.98,-0.49,-0.13,9.73,12:54:28,34.056866N,-113.287216W,23929.40,14.55,17
8578739,10.99,21289.20,380,-11.97,-0.27,-0.33,9.91,12:54:29,34.056866N,-113.287140W,23932.80,15.08,17
8579740,11.23,21262.31,406,-12.00,-0.17,-0.31,10.06,12:54:30,34.056870N,-113.287064W,23935.80,15.65,17
8580741,11.46,21135.06,443,-11.96,-0.09,-0.30,10.14,12:54:31,34.056873N,-113.286987W,23938.70,15.73,17
8581742,11.29,21127.20,410,-11.97,-0.26,-0.41,10.25,12:54:32,34.056877N,-113.286911W,23941.40,15.37,17
8582743,11.08,21323.00,408,-11.95,-0.14,-0.41,10.37,12:54:33,34.056877N,-113.286835W,23944.30,14.84,17
8583744,10.91,21597.06,357,-11.97,-0.56,-0.35,10.39,12:54:34,34.056873N,-113.286774W,23947.30,14.77,17
8584745,10.79,21689.19,350,-11.94,-0.47,-0.49,10.34,12:54:35,34.056870N,-113.286697W,23950.70,14.59,17
8585746,10.65,21757.89,330,-11.93,-0.20,-0.46,10.28,12:54:36,34.056866N,-113.286629W,23954.40,14.40,17
8586747,10.52,21802.20,380,-11.91,-0.34,-0.23,10.14,12:54:37,34.056866N,-113.286552W,23958.30,14.34,17
8587748,10.46,21831.96,405,-11.96,-0.34,-0.38,9.94,12:54:38,34.056862N,-113.286491W,23962.50,14.02,17
8588749,10.46,21824.50,390,-11.97,-0.50,-0.37,9.81,12:54:39,34.056858N,-113.286423W,23966.60,13.03,17
8589750,10.60,21768.19,409,-11.93,-0.65,-0.54,9.94,12:54:40,34.056854N,-113.286377W,23970.80,11.37,17
8590751,10.89,21537.45,278,-11.95,-0.34,-0.43,10.06,12:54:41,34.056843N,-113.286324W,23974.70,10.21,17
8591752,11.22,21683.39,357,-11.92,-0.70,-0.10,10.05,12:54:42,34.056824N,-113.286270W,23978.20,9.80,17
8592753,11.07,21719.78,362,-11.93,-0.81,-0.19,10.05,12:54:43,34.056805N,-113.286232W,23981.90,9.55,17
8593754,10.97,21693.55,385,-11.92,-0.39,-0.20,10.13,12:54:44,34.056789N,-113.286194W,23985.60,9.53,17
8594755,10.91,21938.95,376,-11.93,-0.17,-0.33,10.27,12:54:45,34.056774N,-113.286156W,23989.30,9.94,17
8595756,10.86,22183.57,377,-11.91,-0.22,-0.13,10.21,12:54:46,34.056759N,-113.286118W,23993.10,10.65,17
8596757,10.86,22373.65,376,-11.93,-0.03,-0.13,10.16,12:54:47,34.056744N,-113.286064W,23996.90,11.08,17
8597758,10.86,22289.94,345,-11.92,-0.09,0.10,10.09,12:54:48,34.056725N,-113.286018W,24001.00,11.11,17
8598759,10.85,22210.76,336,-11.91,-0.28,-0.16,10.02,12:54:49,34.056705N,-113.285980W,24005.10,11.51,17
8599760,10.84,22150.18,288,-11.90,-0.05,-0.62,9.98,12:54:50,34.056679N,-113.285912W,24009.10,12.57,17
8600761,10.84,22099.71,338,-11.88,0.15,-0.54,9.89,12:54:51,34.056656N,-113.285866W,24013.10,13.85,17
8601762,10.86,22057.49,360,-11.89,-0.19,-0.20,9.97,12:54:52,34.056633N,-113.285797W,24017.00,15.23,17
8602763,11.02,21778.52,371,-11.91,-0.29,-0.42,10.07,12:54:53,34.056618N,-113.285721W,24020.60,16.76,17
8603764,11.45,21757.89,394,-11.90,-0.31,-0.46,10.16,12:54:54,34.056602N,-113.285629W,24024.00,17.79,17
8604765,11.64,21762.30,410,-11.89,-0.62,-0.38,10.24,12:54:55,34.056583N,-113.285553W,24027.40,17.79,17
8605766,11.74,21684.84,380,-11.88,-0.63,-0.44,10.28,12:54:56,34.056561N,-113.285469W,24030.90,17.07,17
8606767,12.03,21754.95,309,-11.89,-0.29,-0.25,10.23,12:54:57,34.056534N,-113.285385W,24034.60,16.45,17
8607768,11.82,21814.08,313,-11.88,-0.28,-0.75,10.17,12:54:58,34.056507N,-113.285324W,24038.60,16.19,17
8608769,11.66,21881.41,332,-11.88,-0.56,-0.63,10.05,12:54:59,34.056473N,-113.285248W,24042.80,16.28,17
8609770,11.53,21929.82,370,-11.89,-0.29,-0.39,10.02,12:55:0,34.056450N,-113.285187W,24047.20,16.48,17
8610771,11.41,21951.14,366,-11.89,-0.30,-0.14,9.87,12:55:1,34.056423N,-113.285110W,24051.60,16.57,17
8611772,11.31,21969.48,362,-11.88,-0.23,0.19,9.82,12:55:2,34.056393N,-113.285034W,24055.90,16.32,17
8612773,11.26,21987.89,389,-11.88,0.11,0.23,10.08,12:55:3,34.056366N,-113.284966W,24060.00,14.99,16
8613774,11.21,22006.36,345,-11.87,-0.00,-0.00,10.22,12:55:4,34.056332N,-113.284904W,24063.90,13.48,17
8614775,11.16,22018.71,319,-11.88,-0.49,-0.59,10.25,12:55:5,34.056297N,-113.284866W,24067.60,12.76,17
8615776,11.12,22128.04,346,-11.90,-0.92,-0.31,10.24,12:55:6,34.056263N,-113.284813W,24071.50,12.75,17
8616777,11.08,22239.71,355,-11.87,-0.48,-0.22,10.27,12:55:7,34.056225N,-113.284775W,24075.50,13.05,17
8617778,11.05,22263.95,348,-11.86,-0.23,-0.24,10.28,12:55:8,34.056187N,-113.284737W,24079.70,13.64,17
8618779,11.05,22337.37,382,-11.87,-0.16,-0.12,10.03,12:55:9,34.056149N,-113.284683W,24084.00,14.74,17
8619780,11.04,22502.67,401,-11.88,-0.04,-0.29,9.79,12:55:10,34.056110N,-113.284622W,24088.60,15.70,17
8620781,11.04,22403.52,374,-11.87,-0.15,-0.54,9.76,12:55:11,34.056072N,-113.284554W,24093.10,15.72,17
8621782,11.05,22236.48,394,-11.87,-0.44,-0.25,9.81,12:55:12,34.056038N,-113.284492W,24097.40,15.67,17
8622783,11.07,21984.82,357,-11.88,-0.17,0.22,9.90,12:55:13,34.056004N,-113.284431W,24101.40,16.00,17
8623784,11.57,21981.75,326,-11.87,0.05,-0.12,10.01,12:55:14,34.055965N,-113.284363W,24105.00,16.38,17
8624785,11.68,21994.04,350,-11.87,-0.43,-0.22,10.15,12:55:15,34.055931N,-113.284302W,24108.40,16.56,17
8625786,11.59,22003.28,362,-11.87,-0.32,-0.03,10.21,12:55:16,34.055893N,-113.284233W,24111.80,16.94,17
8626787,11.53,22010.99,353,-11.87,-0.36,-0.24,10.23,12:55:17,34.055859N,-113.284157W,24115.20,17.50,17
8627788,11.50,22021.80,342,-11.87,-0.48,-0.21,10.34,12:55:18,34.055824N,-113.284081W,24118.70,17.48,17
8628789,11.48,22109.13,387,-11.87,-0.03,-0.17,10.41,12:55:19,34.055786N,-113.284019W,24122.40,16.87,17
8629790,11.47,22286.68,370,-11.87,-0.43,-0.20,10.32,12:55:20,34.055752N,-113.283943W,24126.40,16.56,17
8630791,11.44,22247.78,357,-11.86,-0.57,0.10,10.14,12:55:21,34.055714N,-113.283882W,24130.70,16.53,17
8631792,11.44,22052.83,9,-11.87,-0.34,0.01,9.84,12:55:22,34.055676N,-113.283813W,24135.40,15.86,17
8632793,11.43,21951.14,355,-11.87,-0.75,-0.26,9.92,12:55:23,34.055645N,-113.283752W,24140.00,14.39,17
8633794,11.84,21984.82,343,-11.85,-0.65,0.11,10.01,12:55:24,34.055614N,-113.283699W,24144.50,12.85,17
8634795,11.76,22006.36,325,-11.84,-0.41,-0.46,10.05,12:55:25,34.055592N,-113.283646W,24148.80,11.64,17
8635796,11.69,22026.45,331,-11.84,-0.56,-0.28,10.21,12:55:26,34.055569N,-113.283607W,24153.10,10.51,17
8636797,11.64,22043.50,302,-11.84,-0.42,-0.21,10.22,12:55:27,34.055542N,-113.283569W,24157.30,9.37,17
8637798,11.64,22052.83,330,-11.86,-0.13,-0.17,10.23,12:55:28,34.055515N,-113.283531W,24161.60,9.30,17
8638799,11.65,22052.83,348,-11.84,0.08,-0.44,10.14,12:55:29,34.055492N,-113.283508W,24165.90,10.16,17
8639800,11.66,22052.83,328,-11.83,-0.29,-0.15,10.02,12:55:30,34.055462N,-113.283470W,24170.40,11.11,17
8640801,11.80,22020.26,340,-11.86,-0.69,-0.06,9.87,12:55:31,34.055435N,-113.283417W,24174.90,11.18,17
8641802,12.00,21917.68,389,-11.84,-0.53,-0.31,9.66,12:55:32,34.055412N,-113.283379W,24179.50,11.83,17
8642803,12.34,21637.17,404,-11.84,0.02,-0.00,9.66,12:55:33,34.055389N,-113.283325W,24183.90,13.16,17
8643804,12.30,21995.58,381,-11.86,-0.27,0.32,9.90,12:55:34,34.055363N,-113.283264W,24187.90,14.32,17
8644805,12.16,22249.39,374,-11.85,-0.25,-0.28,10.08,12:55:35,34.055336N,-113.283203W,24191.60,14.86,17
8645806,12.07,22228.43,370,-11.84,-0.37,-0.64,10.18,12:55:36,34.055302N,-113.283134W,24195.10,15.30,17
8646807,12.00,22306.24,346,-11.83,-0.42,-0.35,10.27,12:55:37,34.055275N,-113.283073W,24198.50,15.90,17
8647808,11.97,22343.95,350,-11.86,-0.26,-0.20,10.36,12:55:38,34.055244N,-113.283005W,24202.10,15.65,17
8648809,11.94,22435.24,366,-11.84,-0.15,-0.42,10.46,12:55:39,34.055214N,-113.282944W,24205.80,14.48,17
8649810,11.92,22371.99,338,-11.85,-0.33,-0.32,10.38,12:55:40,34.055191N,-113.282883W,24209.70,13.63,17
8650811,11.89,22306.24,357,-11.80,-0.39,-0.78,10.22,12:55:41,34.055168N,-113.282814W,24214.00,13.64,17
8651812,11.87,22262.33,346,-11.84,-0.06,-0.62,9.99,12:55:42,34.055145N,-113.282768W,24218.50,13.82,17
8652813,11.87,22010.99,9,-11.79,-0.74,-0.31,9.89,12:55:43,34.055122N,-113.282700W,24223.30,13.19,17
8653814,12.35,21914.65,9,-11.79,-0.79,-0.50,9.87,12:55:44,34.055103N,-113.282639W,24228.00,12.27,17
8654815,12.24,21738.80,13,-11.84,-0.40,-0.29,9.96,12:55:45,34.055088N,-113.282585W,24232.50,11.41,17
8655816,12.47,21811.11,374,-11.83,-0.23,-0.07,10.01,12:55:46,34.055073N,-113.282532W,24236.90,10.08,17
8656817,12.32,22069.97,361,-11.79,-0.36,-0.25,9.96,12:55:47,34.055065N,-113.282494W,24241.20,8.56,17
8657818,12.23,22262.33,399,-11.77,-0.28,-0.17,10.09,12:55:48,34.055058N,-113.282455W,24245.50,7.65,17
8658819,12.17,22353.83,425,-11.79,-0.09,-0.05,10.24,12:55:49,34.055058N,-113.282433W,24249.70,7.92,17
8659820,12.14,22567.55,366,-11.78,-0.26,-0.11,10.23,12:55:50,34.055050N,-113.282394W,24253.80,8.39,17
8660821,12.13,22691.04,361,-11.77,-0.19,-0.38,10.13,12:55:51,34.055038N,-113.282356W,24258.00,8.87,17
8661822,12.13,22745.92,369,-11.74,-0.29,-0.43,9.95,12:55:52,34.055023N,-113.282303W,24262.40,9.66,17
8662823,12.13,22615.90,338,-11.77,-0.45,-0.37,9.93,12:55:53,34.055012N,-113.282265W,24266.90,10.70,17
8663824,12.11,22494.19,327,-11.71,-0.26,-0.42,9.97,12:55:54,34.054993N,-113.282211W,24271.30,11.56,17
8664825,12.10,22408.52,352,-11.73,-0.33,-0.17,9.98,12:55:55,34.054977N,-113.282166W,24275.50,12.22,17
8665826,12.11,22343.95,346,-11.74,-0.31,-0.11,10.02,12:55:56,34.054958N,-113.282097W,24279.60,12.75,17
8666827,12.13,22298.08,358,-11.77,-0.43,-0.30,10.09,12:55:57,34.054939N,-113.282051W,24283.60,13.31,17
8667828,12.16,22263.95,351,-11.75,-0.35,-0.30,10.09,12:55:58,34.054920N,-113.281982W,24287.50,13.40,17
8668829,12.19,22234.87,341,-11.66,-0.19,-0.10,10.16,12:55:59,34.054901N,-113.281921W,24291.40,13.12,17
8669830,12.22,22212.37,357,-11.72,-0.22,-0.14,10.18,12:56:0,34.054886N,-113.281853W,24295.30,12.74,17
8670831,12.25,22201.15,313,-11.67,-0.25,-0.44,10.16,12:56:1,34.054871N,-113.281807W,24299.30,12.71,17
8671832,12.28,22199.55,331,-11.68,-0.36,-0.30,10.11,12:56:2,34.054859N,-113.281738W,24303.40,12.42,17
8672833,12.30,22209.16,347,-11.66,-0.21,-0.28,10.02,12:56:3,34.054848N,-113.281693W,24307.70,11.94,17
8673834,12.26,22209.16,337,-11.70,-0.20,-0.14,9.91,12:56:4,34.054840N,-113.281639W,24312.00,11.18,17
8674835,12.23,22210.76,304,-11.67,-0.34,0.00,9.89,12:56:5,34.054832N,-113.281578W,24316.30,10.05,17
8675836,12.24,22210.76,345,-11.67,-0.24,0.01,9.97,12:56:6,34.054825N,-113.281532W,24320.50,8.46,17
8676837,12.27,22223.61,350,-11.63,-0.11,-0.22,10.08,12:56:7,34.054821N,-113.281494W,24324.50,6.80,17
8677838,12.28,22249.39,355,-11.58,-0.44,-0.42,10.07,12:56:8,34.054817N,-113.281471W,24328.30,5.61,17
8678839,12.27,22383.59,362,-11.64,-0.56,-0.15,10.07,12:56:9,34.054813N,-113.281448W,24332.10,5.21,17
8679840,12.25,22401.86,387,-11.65,-0.36,-0.08,10.12,12:56:10,34.054813N,-113.281433W,24335.90,5.28,17
8680841,12.27,22430.22,375,-11.69,-0.33,-0.33,10.15,12:56:11,34.054813N,-113.281410W,24339.60,5.72,17
8681842,12.31,22027.99,375,-11.61,-0.31,-0.37,10.14,12:56:12,34.054813N,-113.281372W,24343.40,6.28,17
8682843,12.53,22037.29,332,-11.59,-0.40,-0.38,10.09,12:56:13,34.054817N,-113.281342W,24347.20,6.53,17
8683844,12.78,22079.34,361,-11.69,-0.45,-0.14,10.10,12:56:14,34.054821N,-113.281319W,24351.00,6.11,17
8684845,12.72,22112.28,362,-11.63,-0.26,-0.11,10.11,12:56:15,34.054821N,-113.281281W,24354.90,5.59,17
8685846,12.70,22145.43,348,-11.62,-0.33,-0.49,10.13,12:56:16,34.054821N,-113.281258W,24358.90,5.59,17
8686847,12.69,22252.62,364,-11.62,-0.46,-0.24,10.12,12:56:17,34.054817N,-113.281227W,24363.00,6.12,17
8687848,12.67,22316.05,345,-11.55,-0.32,-0.23,10.05,12:56:18,34.054810N,-113.281204W,24367.10,7.03,17
8688849,12.64,22363.73,351,-11.55,-0.26,-0.28,9.91,12:56:19,34.054802N,-113.281166W,24371.30,8.28,17
8689850,12.60,22643.73,414,-11.59,-0.32,-0.20,9.76,12:56:20,34.054790N,-113.281128W,24375.50,9.92,17
8690851,12.57,22560.69,416,-11.54,-0.04,-0.08,9.91,12:56:21,34.054775N,-113.281075W,24379.40,11.34,17
8691852,12.58,22286.68,435,-11.57,-0.17,-0.40,10.12,12:56:22,34.054749N,-113.281021W,24382.90,11.99,17
8692853,12.60,21941.99,391,-11.55,-0.40,-0.33,10.24,12:56:23,34.054722N,-113.280975W,24386.30,12.02,17
8693854,12.84,21960.30,327,-11.54,-0.48,0.00,10.26,12:56:24,34.054691N,-113.280922W,24389.50,11.95,17
8694855,13.13,22029.54,347,-11.50,-0.09,-0.19,10.29,12:56:25,34.054661N,-113.280884W,24392.90,11.37,17
8695856,13.05,22080.90,330,-11.50,-0.29,-0.28,10.27,12:56:26,34.054630N,-113.280846W,24396.50,10.75,17
8696857,13.00,22123.31,313,-11.56,-0.33,-0.44,10.19,12:56:27,34.054600N,-113.280807W,24400.30,10.09,17
8697858,12.96,22174.01,346,-11.57,-0.40,-0.18,9.98,12:56:28,34.054577N,-113.280769W,24404.50,9.80,17
8698859,12.93,22201.15,301,-11.50,-0.35,-0.11,9.80,12:56:29,34.054550N,-113.280731W,24408.80,9.50,17
8699860,12.92,22212.37,341,-11.53,-0.44,0.22,9.83,12:56:30,34.054523N,-113.280701W,24413.00,8.69,17
8700861,12.91,22225.21,312,-11.50,0.25,-0.08,10.04,12:56:31,34.054493N,-113.280693W,24417.10,7.55,17
8701862,12.92,22236.48,332,-11.48,-0.06,-0.39,10.16,12:56:32,34.054466N,-113.280678W,24420.90,6.54,17
8702863,12.92,22242.93,335,-11.43,-0.22,-0.62,10.18,12:56:33,34.054443N,-113.280663W,24424.40,6.00,17
8703864,12.91,22247.78,341,-11.50,-0.28,-0.68,10.19,12:56:34,34.054420N,-113.280663W,24427.90,5.58,17
8704865,12.93,22244.54,384,-11.45,-0.23,-0.21,10.23,12:56:35,34.054398N,-113.280663W,24431.50,5.36,17
8705866,13.04,21926.78,15,-11.48,-0.28,-0.23,10.23,12:56:36,34.054379N,-113.280655W,24435.30,5.92,17
8706867,13.37,21899.51,401,-11.43,-0.12,-0.48,10.10,12:56:37,34.054352N,-113.280640W,24439.20,7.31,17
8707868,13.32,22228.43,387,-11.43,0.09,-0.42,9.99,12:56:38,34.054325N,-113.280624W,24443.40,8.15,17
8708869,13.27,22327.52,337,-11.43,0.03,-0.46,9.91,12:56:39,34.054295N,-113.280617W,24447.60,8.43,17
