time_since_start,bme_temp,bme_alt,uv,ism_temp,acc_x,acc_y,acc_z,gps_time,latitude,longitude,gps_alt,speed,sats
8109270,2.03,20605.87,337,-13.52,-0.46,-0.33,10.09,12:46:39,34.054245N,-113.315018W,22130.20,22.73,17
8110271,2.11,20363.62,400,-13.55,-0.27,-0.03,10.07,12:46:40,34.054226N,-113.314903W,22134.40,23.48,17
8111272,2.35,20596.36,377,-13.56,-0.27,-0.28,10.16,12:46:41,34.054214N,-113.314781W,22137.90,24.44,17
8112273,2.33,20618.98,345,-13.54,0.23,-0.02,10.26,12:46:42,34.054199N,-113.314674W,22141.90,24.17,17
8113274,2.31,20617.79,356,-13.58,-0.39,-0.12,10.15,12:46:43,34.054173N,-113.314575W,22146.50,23.51,17
8114275,2.28,20621.37,340,-13.52,-0.05,0.03,10.00,12:46:44,34.054157N,-113.314461W,22150.60,23.53,17
8115276,2.35,20588.04,343,-13.58,-0.41,0.06,9.82,12:46:45,34.054146N,-113.314331W,22154.30,24.10,17
8116277,2.34,20656.09,336,-13.54,-0.33,-0.09,9.91,12:46:46,34.054131N,-113.314217W,22158.70,24.47,17
8117278,2.34,20654.89,313,-13.57,-0.22,-0.47,9.95,12:46:47,34.054127N,-113.314102W,22163.30,25.22,17
8118279,2.29,20650.08,348,-13.55,-0.03,-0.36,10.01,12:46:48,34.054119N,-113.313972W,22166.80,26.82,17
8119280,2.30,20400.21,431,-13.51,-0.41,-0.41,10.14,12:46:49,34.054111N,-113.313828W,22170.50,28.19,17
8120281,2.55,20642.89,367,-13.56,0.27,-0.51,10.32,12:46:50,34.054119N,-113.313690W,22173.40,28.21,17
8121282,2.54,20646.49,342,-13.54,-0.12,-0.30,10.39,12:46:51,34.054119N,-113.313560W,22176.60,27.39,17
8122283,2.54,20642.89,332,-13.53,-0.06,-0.09,10.45,12:46:52,34.054104N,-113.313431W,22180.40,26.39,17
8123284,2.65,20424.36,396,-13.52,-0.45,0.01,10.27,12:46:53,34.054104N,-113.313309W,22184.70,25.41,17
8124285,2.69,20656.09,384,-13.54,-0.37,-0.23,9.98,12:46:54,34.054100N,-113.313187W,22188.90,24.21,17
8125286,2.66,20744.46,366,-13.52,-0.44,-0.06,9.92,12:46:55,34.054096N,-113.313072W,22192.60,23.24,17
8126287,2.66,20729.84,331,-13.52,-0.43,0.10,9.99,12:46:56,34.054085N,-113.312988W,22198.20,22.85,17
8127288,2.65,20715.25,353,-13.58,-0.51,0.42,10.16,12:46:57,34.054066N,-113.312881W,22202.40,21.95,17
8128289,2.64,20703.13,338,-13.50,-0.28,0.08,10.23,12:46:58,34.054047N,-113.312782W,22206.70,21.01,17
8129290,2.62,20694.65,296,-13.51,0.08,-0.64,10.17,12:46:59,34.054020N,-113.312675W,22210.80,20.15,17
8130291,2.59,20687.40,262,-13.52,-0.09,-0.71,10.05,12:47:0,34.053986N,-113.312592W,22214.90,19.67,17
8131292,2.57,20677.75,367,-13.49,-0.29,-0.19,10.01,12:47:1,34.053959N,-113.312515W,22219.20,18.95,17
8132293,2.57,20499.76,36,-13.50,-0.22,-0.34,9.97,12:47:2,34.053936N,-113.312424W,22223.50,18.50,17
8133294,3.05,20346.54,401,-13.47,-0.14,-0.14,9.89,12:47:3,34.053917N,-113.312332W,22227.90,19.15,17
8134295,3.37,20204.02,396,-13.49,0.13,-0.30,9.83,12:47:4,34.053902N,-113.312241W,22232.10,19.89,17
8135296,3.28,20457.87,343,-13.48,0.21,-0.40,9.79,12:47:5,34.053886N,-113.312141W,22236.10,20.10,17
8136297,3.15,20573.82,322,-13.50,-0.08,-0.32,9.73,12:47:6,34.053875N,-113.312050W,22240.00,19.67,17
8137298,3.06,20621.37,292,-13.51,-0.60,-0.79,9.73,12:47:7,34.053864N,-113.311958W,22243.80,19.43,17
8138299,3.00,20660.89,343,-13.51,-0.49,-0.80,9.94,12:47:8,34.053852N,-113.311859W,22247.20,19.15,17
8139300,2.96,20689.82,357,-13.49,-0.14,-0.27,10.16,12:47:9,34.053852N,-113.311783W,22250.20,18.54,17
8140301,2.85,20701.92,352,-13.52,-0.46,0.12,10.19,12:47:10,34.053856N,-113.311691W,22253.00,18.13,17
8141302,2.76,20845.45,392,-13.53,-0.57,0.19,10.23,12:47:11,34.053867N,-113.311600W,22255.70,18.52,17
8142303,2.73,20957.18,404,-13.46,0.03,-0.04,10.44,12:47:12,34.053879N,-113.311516W,22258.40,19.03,17
8143304,2.75,20969.88,370,-13.48,0.01,-0.42,10.62,12:47:13,34.053886N,-113.311424W,22261.20,18.77,17
8144305,2.78,20844.20,19,-13.43,-0.63,-0.37,10.55,12:47:14,34.053886N,-113.311333W,22264.00,18.23,17
8145306,2.81,20700.71,10,-13.47,-0.74,0.20,10.35,12:47:15,34.053886N,-113.311241W,22267.30,18.19,17
8146307,2.88,20614.21,18,-13.45,-0.71,-0.10,10.26,12:47:16,34.053886N,-113.311157W,22270.90,18.01,17
8147308,2.88,20397.92,112,-13.43,-0.42,-0.42,10.11,12:47:17,34.053886N,-113.311066W,22275.10,17.26,17
8148309,3.07,20337.46,415,-13.50,0.01,-0.45,9.91,12:47:18,34.053890N,-113.310989W,22279.50,16.83,17
8149310,3.43,20427.81,406,-13.45,-0.22,-0.74,9.82,12:47:19,34.053898N,-113.310898W,22284.20,16.84,17
8150311,3.33,20500.93,390,-13.47,-0.76,-0.49,9.94,12:47:20,34.053905N,-113.310822W,22288.90,16.51,17
8151312,3.24,20556.10,357,-13.43,-0.66,-0.08,10.08,12:47:21,34.053905N,-113.310745W,22293.50,15.57,17
8152313,3.19,20593.98,278,-13.48,-0.02,0.02,10.15,12:47:22,34.053894N,-113.310684W,22297.70,15.04,17
8153314,3.17,20629.73,268,-13.45,0.40,-0.80,10.07,12:47:23,34.053883N,-113.310608W,22301.90,14.73,17
8154315,3.14,20693.45,317,-13.46,-0.29,-0.52,10.12,12:47:24,34.053867N,-113.310539W,22305.90,13.84,17
8155316,3.08,20658.49,15,-13.41,-0.31,-0.46,10.23,12:47:25,34.053864N,-113.310478W,22310.20,13.12,17
8156317,3.05,20578.56,418,-13.46,0.22,-0.34,10.13,12:47:26,34.053867N,-113.310410W,22314.40,13.59,17
8157318,3.44,20598.73,403,-13.42,0.14,-0.59,9.96,12:47:27,34.053875N,-113.310349W,22318.50,14.99,17
8158319,3.44,20635.71,374,-13.44,-0.62,-0.82,10.15,12:47:28,34.053886N,-113.310272W,22322.80,16.44,17
8159320,3.38,20664.50,356,-13.47,-0.29,-0.07,10.30,12:47:29,34.053886N,-113.310196W,22327.00,17.78,17
8160321,3.34,20666.91,342,-13.43,-0.25,-0.02,10.16,12:47:30,34.053886N,-113.310104W,22331.10,19.45,17
8161322,3.54,20683.78,272,-13.44,-0.08,0.03,9.90,12:47:31,34.053871N,-113.310005W,22335.30,21.17,17
8162323,3.48,20711.61,319,-13.44,0.14,-0.32,9.70,12:47:32,34.053860N,-113.309898W,22339.70,21.50,17
8163324,3.43,20727.40,346,-13.42,0.01,-0.04,9.66,12:47:33,34.053848N,-113.309799W,22344.10,20.69,17
8164325,3.40,20739.58,294,-13.42,-0.52,-0.45,9.61,12:47:34,34.053837N,-113.309692W,22348.40,20.08,17
8165326,3.39,20846.69,362,-13.41,-0.75,-0.05,9.89,12:47:35,34.053833N,-113.309608W,22352.20,20.06,17
8166327,3.39,21020.96,426,-13.44,-0.22,0.11,10.11,12:47:36,34.053833N,-113.309502W,22355.60,20.04,17
8167328,3.40,21158.69,404,-13.42,-0.20,-0.28,10.29,12:47:37,34.053833N,-113.309402W,22358.60,20.23,17
8168329,3.42,20862.87,335,-13.43,-0.45,-0.49,10.39,12:47:38,34.053829N,-113.309311W,22361.40,20.25,17
8169330,3.89,20841.72,296,-13.43,-0.12,-0.26,10.49,12:47:39,34.053825N,-113.309212W,22364.20,20.64,17
8170331,3.81,20824.36,316,-13.44,0.12,-0.21,10.52,12:47:40,34.053822N,-113.309105W,22367.20,20.33,17
8171332,3.76,20816.93,330,-13.40,-0.15,-0.16,10.43,12:47:41,34.053814N,-113.309021W,22370.60,19.33,17
8172333,3.72,20971.15,390,-13.41,-0.44,-0.27,10.23,12:47:42,34.053810N,-113.308929W,22374.30,18.39,17
8173334,3.69,20668.11,14,-13.43,0.24,-0.07,10.01,12:47:43,34.053806N,-113.308838W,22378.60,17.93,17
8174335,3.82,20457.87,409,-13.42,-0.33,-0.33,9.80,12:47:44,34.053810N,-113.308746W,22383.00,17.58,17
8175336,3.97,20541.96,391,-13.41,-0.66,-0.50,9.85,12:47:45,34.053806N,-113.308670W,22387.50,16.46,17
8176337,3.91,20610.63,345,-13.40,-0.17,-0.15,10.00,12:47:46,34.053799N,-113.308594W,22391.90,15.65,17
8177338,3.87,20668.11,317,-13.40,-0.33,-0.37,10.02,12:47:47,34.053787N,-113.308517W,22396.20,15.09,17
8178339,3.78,20712.82,342,-13.44,-0.24,-0.58,10.09,12:47:48,34.053768N,-113.308456W,22400.30,14.50,17
8179340,3.71,20714.04,99,-13.42,-0.40,-0.40,10.17,12:47:49,34.053749N,-113.308388W,22404.30,13.54,17
8180341,3.66,20632.12,370,-13.40,-0.05,-0.22,10.19,12:47:50,34.053738N,-113.308327W,22408.20,13.31,17
8181342,4.10,20549.03,397,-13.40,0.01,-0.20,10.18,12:47:51,34.053722N,-113.308266W,22412.10,13.80,17
8182343,4.46,20475.29,405,-13.43,-0.25,-0.29,10.09,12:47:52,34.053707N,-113.308197W,22416.00,14.58,17
8183344,4.75,20549.03,355,-13.40,-0.41,-0.25,9.98,12:47:53,34.053696N,-113.308136W,22420.10,15.48,17
8184345,4.63,20617.79,355,-13.40,-0.31,-0.41,9.96,12:47:54,34.053680N,-113.308060W,22424.20,16.53,17
8185346,4.46,20539.61,375,-13.40,-0.21,-0.20,10.01,12:47:55,34.053658N,-113.307983W,22428.30,17.77,17
8186347,4.78,20402.51,358,-13.41,-0.51,-0.35,10.06,12:47:56,34.053631N,-113.307907W,22432.30,18.59,17
8187348,4.97,20412.85,358,-13.40,-0.39,-0.08,10.07,12:47:57,34.053604N,-113.307816W,22436.20,18.66,17
8188349,5.18,20455.55,365,-13.40,-0.31,-0.24,10.10,12:47:58,34.053570N,-113.307739W,22440.00,19.00,17
8189350,4.91,20608.25,319,-13.39,-0.68,-0.18,10.11,12:47:59,34.053539N,-113.307648W,22443.70,19.61,17
8190351,4.71,20691.03,332,-13.40,-0.19,-0.16,10.07,12:48:0,34.053509N,-113.307556W,22447.60,19.90,17
8191352,4.49,20740.80,328,-13.41,-0.36,-0.07,10.14,12:48:1,34.053474N,-113.307472W,22451.50,19.92,17
8192353,4.31,20767.70,355,-13.41,-0.41,-0.23,10.19,12:48:2,34.053444N,-113.307381W,22455.50,20.23,17
8193354,4.21,20786.11,338,-13.38,-0.41,-0.19,10.16,12:48:3,34.053410N,-113.307289W,22459.40,20.18,17
8194355,4.15,20800.88,325,-13.40,-0.20,-0.03,10.08,12:48:4,34.053375N,-113.307198W,22463.40,19.10,17
8195356,4.11,20819.41,337,-13.41,-0.43,0.13,10.02,12:48:5,34.053341N,-113.307121W,22467.40,17.29,17
8196357,4.07,20828.07,304,-13.39,-0.21,-0.00,10.12,12:48:6,34.053310N,-113.307045W,22471.50,15.48,17
8197358,4.18,20797.19,327,-13.41,-0.29,-0.23,10.17,12:48:7,34.053291N,-113.306984W,22475.60,13.85,17
8198359,4.41,20697.07,374,-13.38,-0.09,-0.29,10.13,12:48:8,34.053272N,-113.306931W,22479.60,12.51,17
8199360,4.74,20658.49,410,-13.41,-0.06,-0.18,10.04,12:48:9,34.053257N,-113.306877W,22483.70,12.02,17
8200361,4.57,20784.88,345,-13.39,-0.43,-0.02,9.94,12:48:10,34.053249N,-113.306816W,22487.70,12.32,17
8201362,4.46,20823.12,323,-13.42,-0.25,-0.10,9.98,12:48:11,34.053234N,-113.306763W,22491.90,12.76,17
8202363,4.35,20837.99,279,-13.37,0.00,-0.06,10.04,12:48:12,34.053223N,-113.306702W,22496.10,12.81,17
8203364,4.25,20852.91,284,-13.34,-0.19,0.02,10.08,12:48:13,34.053211N,-113.306633W,22500.10,12.83,17
8204365,4.19,20852.91,316,-13.38,-0.35,0.03,10.17,12:48:14,34.053196N,-113.306587W,22503.90,12.64,17
8205366,4.30,20852.91,340,-13.37,-0.13,-0.25,10.21,12:48:15,34.053192N,-113.306519W,22507.70,12.45,17
8206367,4.37,20689.82,29,-13.39,-0.26,-0.36,10.21,12:48:16,34.053188N,-113.306458W,22511.50,12.26,17
8207368,4.71,20779.96,414,-13.37,-0.18,0.02,10.21,12:48:17,34.053188N,-113.306404W,22515.40,12.83,17
8208369,4.54,21037.67,389,-13.36,-0.13,0.03,10.23,12:48:18,34.053188N,-113.306343W,22519.40,13.88,17
8209370,4.43,21203.62,362,-13.32,-0.14,-0.15,10.19,12:48:19,34.053185N,-113.306267W,22523.60,14.95,17
8210371,4.35,21226.22,338,-13.36,-0.08,-0.45,10.11,12:48:20,34.053173N,-113.306198W,22528.00,15.73,17
8211372,4.30,21156.06,319,-13.40,-0.02,-0.45,10.02,12:48:21,34.053158N,-113.306122W,22532.50,16.06,17
8212373,4.19,21090.69,292,-13.37,-0.09,-0.27,9.93,12:48:22,34.053146N,-113.306046W,22537.10,16.00,17
8213374,4.13,21045.39,346,-13.32,-0.26,-0.25,9.92,12:48:23,34.053131N,-113.305969W,22541.70,15.69,17
8214375,4.10,21015.83,343,-13.32,-0.10,-0.19,10.05,12:48:24,34.053127N,-113.305893W,22546.20,15.67,17
8215376,4.11,20794.72,406,-13.35,-0.18,-0.07,10.20,12:48:25,34.053123N,-113.305817W,22550.50,16.41,17
8216377,4.55,20671.72,395,-13.37,-0.18,-0.05,10.26,12:48:26,34.053127N,-113.305725W,22554.60,17.69,17
8217378,4.43,20930.61,377,-13.37,0.01,-0.16,10.22,12:48:27,34.053131N,-113.305641W,22558.70,18.97,17
8218379,4.32,21037.67,353,-13.34,-0.29,-0.22,10.06,12:48:28,34.053131N,-113.305550W,22562.90,20.08,17
8219380,4.25,21024.81,328,-13.34,-0.11,-0.29,9.83,12:48:29,34.053131N,-113.305443W,22567.20,20.64,17
8220381,4.18,21011.99,303,-13.32,0.06,-0.38,9.69,12:48:30,34.053127N,-113.305344W,22571.70,20.19,17
8221382,4.06,20990.25,317,-13.34,-0.12,-0.07,9.70,12:48:31,34.053123N,-113.305252W,22576.10,18.92,17
8222383,4.00,20971.15,326,-13.36,-0.04,-0.19,9.91,12:48:32,34.053120N,-113.305168W,22580.30,17.52,17
8223384,3.97,20963.52,350,-13.34,0.00,-0.30,10.08,12:48:33,34.053127N,-113.305084W,22584.00,16.65,17
8224385,3.99,20912.97,410,-13.30,-0.17,-0.49,10.19,12:48:34,34.053135N,-113.305008W,22587.30,16.04,17
8225386,4.27,20753.01,392,-13.33,-0.06,-0.53,10.32,12:48:35,34.053150N,-113.304932W,22590.50,15.65,17
8226387,4.64,20626.14,400,-13.29,-0.09,-0.31,10.43,12:48:36,34.053162N,-113.304855W,22593.70,15.65,17
8227388,4.92,20457.87,10,-13.32,-0.52,-0.20,10.37,12:48:37,34.053173N,-113.304779W,22596.90,15.71,17
8228389,4.88,20435.89,332,-13.29,-0.72,-0.20,10.27,12:48:38,34.053177N,-113.304703W,22600.30,15.42,17
8229390,5.17,20563.18,364,-13.34,-0.39,0.02,10.25,12:48:39,34.053177N,-113.304642W,22604.00,14.63,17
8230391,4.91,20660.89,322,-13.32,-0.05,-0.33,10.15,12:48:40,34.053177N,-113.304565W,22608.10,13.95,17
8231392,4.69,20755.46,370,-13.29,-0.56,-0.21,10.07,12:48:41,34.053177N,-113.304497W,22612.40,13.54,17
8232393,4.54,21008.15,408,-13.31,-0.18,0.17,10.05,12:48:42,34.053177N,-113.304436W,22617.00,13.49,17
8233394,4.43,21167.91,380,-13.33,-0.30,0.22,9.99,12:48:43,34.053173N,-113.304375W,22621.70,13.73,17
8234395,4.36,21339.30,404,-13.27,-0.49,-0.35,9.97,12:48:44,34.053162N,-113.304306W,22626.30,14.68,17
8235396,4.32,21038.96,11,-13.27,-0.57,-0.17,9.81,12:48:45,34.053146N,-113.304245W,22630.80,15.80,17
8236397,4.31,20808.29,88,-13.26,-0.45,-0.50,9.73,12:48:46,34.053123N,-113.304169W,22635.20,16.46,17
8237398,4.35,20659.69,127,-13.29,-0.35,-0.43,9.93,12:48:47,34.053097N,-113.304092W,22639.40,16.47,17
8238399,4.37,20590.42,362,-13.32,-0.20,-0.13,10.09,12:48:48,34.053070N,-113.304016W,22643.20,16.26,17
8239400,4.85,20691.03,333,-13.25,-0.04,-0.17,10.22,12:48:49,34.053047N,-113.303947W,22646.80,15.95,17
8240401,4.76,20765.25,319,-13.34,-0.41,-0.36,10.32,12:48:50,34.053020N,-113.303871W,22650.20,15.67,17
8241402,4.67,20826.83,327,-13.26,-0.45,-0.16,10.39,12:48:51,34.053001N,-113.303810W,22653.70,15.67,17
8242403,4.61,20859.13,72,-13.20,-0.26,-0.27,10.34,12:48:52,34.052975N,-113.303734W,22657.40,16.11,17
8243404,4.53,20899.15,331,-13.25,-0.22,-0.11,10.14,12:48:53,34.052952N,-113.303658W,22661.40,16.76,17
8244405,4.49,20925.56,321,-13.22,-0.13,-0.04,9.86,12:48:54,34.052937N,-113.303581W,22665.60,16.51,17
8245406,4.46,20899.15,361,-13.20,-0.33,-0.52,9.85,12:48:55,34.052921N,-113.303497W,22669.90,15.64,17
8246407,4.42,20734.71,16,-13.21,-0.34,-0.00,9.88,12:48:56,34.052910N,-113.303421W,22674.40,15.37,17
8247408,4.55,20613.02,365,-13.26,-0.26,0.08,9.96,12:48:57,34.052910N,-113.303360W,22678.70,15.39,17
8248409,4.98,20638.10,380,-13.20,-0.22,-0.58,10.03,12:48:58,34.052914N,-113.303284W,22682.60,15.34,17
8249410,5.23,20662.10,410,-13.20,-0.19,-0.55,10.05,12:48:59,34.052917N,-113.303207W,22686.30,15.29,17
8250411,5.41,20503.27,395,-13.20,-0.26,-0.18,10.14,12:49:0,34.052929N,-113.303131W,22690.00,15.53,17
8251412,5.30,20792.26,369,-13.23,-0.45,-0.42,10.18,12:49:2,34.052933N,-113.302979W,22697.20,15.58,17
8252413,5.13,21010.71,361,-13.22,-0.21,-0.60,10.15,12:49:3,34.052933N,-113.302910W,22700.90,14.93,17
8253414,5.02,21189.04,356,-13.20,-0.21,-0.33,10.12,12:49:4,34.052933N,-113.302849W,22704.80,13.85,17
8254415,4.94,21346.11,362,-13.21,-0.63,-0.27,10.08,12:49:4,34.052933N,-113.302849W,22704.80,13.13,17
8255416,4.90,21520.53,400,-13.23,-0.32,-0.08,9.94,12:49:6,34.052914N,-113.302734W,22712.70,12.66,17
8256417,4.87,21316.23,440,-13.18,0.06,-0.22,9.87,12:49:7,34.052906N,-113.302666W,22716.60,12.21,17
8257418,4.88,20987.70,431,-13.19,0.11,-0.30,9.94,12:49:8,34.052891N,-113.302620W,22720.30,12.41,17
8258419,4.98,20830.55,414,-13.22,-0.30,-0.08,10.09,12:49:9,34.052864N,-113.302551W,22723.80,13.32,17
8259420,5.00,20686.20,141,-13.18,-0.48,-0.27,10.14,12:49:10,34.052834N,-113.302490W,22727.10,14.20,17
8260421,5.03,20618.98,367,-13.16,-0.49,-0.39,10.17,12:49:11,34.052807N,-113.302437W,22730.40,14.53,17
8261422,5.07,20733.49,337,-13.17,-0.44,-0.32,10.25,12:49:12,34.052773N,-113.302376W,22733.80,14.45,17
8262423,5.07,20821.88,346,-13.16,-0.43,-0.47,10.26,12:49:13,34.052746N,-113.302322W,22737.40,13.81,17
8263424,5.04,20882.86,322,-13.17,-0.35,-0.26,10.17,12:49:14,34.052727N,-113.302269W,22741.20,12.83,17
8264425,5.01,20926.82,330,-13.20,-0.67,-0.49,10.10,12:49:15,34.052704N,-113.302223W,22745.00,11.88,17
8265426,5.00,20930.61,358,-13.17,-0.13,-0.55,10.04,12:49:16,34.052685N,-113.302170W,22749.00,11.51,17
8266427,5.25,20887.86,364,-13.19,-0.29,-0.11,10.01,12:49:17,34.052666N,-113.302116W,22753.00,11.56,17
8267428,5.21,20963.52,303,-13.15,-0.33,-0.46,9.75,12:49:18,34.052650N,-113.302071W,22757.10,11.49,17
8268429,5.19,20872.85,308,-13.16,-0.34,-0.69,9.64,12:49:19,34.052635N,-113.302032W,22761.10,10.73,17
8269430,5.17,20933.13,312,-13.14,-0.28,-0.70,9.91,12:49:20,34.052635N,-113.301979W,22764.70,9.97,17
8270431,5.15,20968.61,357,-13.14,-0.08,-0.40,10.19,12:49:21,34.052643N,-113.301926W,22767.90,9.97,17
8271432,5.14,20996.64,423,-13.16,-0.62,-0.52,10.24,12:49:21,34.052643N,-113.301926W,22767.90,9.99,17
8272433,5.17,20996.64,425,-13.15,-0.53,-0.92,10.32,12:49:23,34.052673N,-113.301834W,22773.70,9.81,17
8273434,5.26,21255.61,356,-13.11,0.03,-0.32,10.51,12:49:24,34.052685N,-113.301796W,22776.80,9.06,17
8274435,5.28,21211.58,297,-13.18,-0.28,-0.41,10.66,12:49:25,34.052689N,-113.301758W,22780.40,8.48,17
8275436,5.30,21174.51,294,-13.16,-0.01,0.15,10.56,12:49:26,34.052689N,-113.301735W,22784.20,7.61,17
8276437,5.31,21140.30,313,-13.11,-0.42,-0.04,10.39,12:49:27,34.052692N,-113.301697W,22788.50,7.12,17
8277438,5.46,21005.59,352,-13.13,-0.85,-0.27,10.29,12:49:28,34.052696N,-113.301659W,22793.20,7.10,17
8278439,5.40,20976.24,386,-13.16,-0.32,-0.15,10.06,12:49:29,34.052715N,-113.301636W,22798.40,7.73,17
8279440,5.35,21252.93,367,-13.17,0.25,-0.18,9.71,12:49:30,34.052734N,-113.301590W,22803.80,8.47,17
8280441,5.33,21218.23,369,-13.14,-0.90,0.08,9.37,12:49:31,34.052750N,-113.301552W,22809.20,8.53,17
8281442,5.32,21194.34,347,-13.10,-0.78,-0.27,9.38,12:49:32,34.052761N,-113.301514W,22814.30,8.51,17
8282443,5.34,21183.75,298,-13.12,-0.25,-0.56,9.41,12:49:33,34.052773N,-113.301476W,22818.80,9.10,17
8283444,5.36,21156.06,274,-13.12,0.59,-0.33,9.79,12:49:34,34.052780N,-113.301430W,22822.40,9.91,17
8284445,5.43,21114.13,356,-13.10,-1.07,-0.15,10.22,12:49:35,34.052795N,-113.301361W,22825.20,11.29,17
8285446,5.47,20991.53,357,-13.12,-0.52,-0.68,10.34,12:49:36,34.052814N,-113.301315W,22827.80,12.59,17
8286447,5.93,21026.10,376,-13.09,-0.94,-0.17,10.30,12:49:37,34.052837N,-113.301247W,22830.50,13.04,17
8287448,5.85,21068.64,397,-13.06,-0.04,-0.73,10.34,12:49:38,34.052868N,-113.301208W,22833.50,13.02,17
8288449,5.80,21193.01,374,-13.06,-0.63,-0.14,10.53,12:49:39,34.052895N,-113.301155W,22836.80,12.36,17
8289450,5.78,21033.81,367,-13.12,-0.28,0.06,10.59,12:49:40,34.052921N,-113.301117W,22840.40,10.93,17
8290451,5.77,21026.10,326,-13.11,0.08,0.08,10.44,12:49:41,34.052944N,-113.301079W,22844.40,10.01,17
8291452,6.02,21038.96,304,-13.07,-0.12,0.16,10.36,12:49:42,34.052967N,-113.301033W,22848.80,10.52,17
8292453,6.13,21059.59,279,-13.10,-0.16,-0.29,10.21,12:49:43,34.052994N,-113.300980W,22853.50,12.00,17
8293454,6.01,21090.69,355,-13.10,0.27,-0.37,10.01,12:49:44,34.053028N,-113.300926W,22858.60,13.36,17
8294455,5.90,21252.93,356,-13.07,0.27,-0.75,10.10,12:49:45,34.053062N,-113.300880W,22863.80,13.33,17
8295456,5.82,21405.00,358,-13.04,-0.17,-0.45,10.19,12:49:46,34.053104N,-113.300850W,22868.90,12.98,17
8296457,5.77,21235.55,15,-13.00,-0.29,-0.01,10.33,12:49:47,34.053150N,-113.300827W,22874.10,12.40,17
8297458,5.75,20978.78,9,-13.05,0.07,0.20,10.20,12:49:48,34.053192N,-113.300797W,22879.20,11.76,17
8298459,5.98,20833.03,343,-13.06,-0.32,0.10,10.00,12:49:49,34.053242N,-113.300774W,22884.50,11.46,17
8299460,6.23,20912.97,343,-13.02,0.13,-0.22,10.00,12:49:50,34.053288N,-113.300735W,22889.90,11.96,17
8300461,6.10,20974.96,345,-12.99,-0.16,-0.13,9.76,12:49:51,34.053329N,-113.300697W,22895.20,13.77,17
8301462,6.00,21022.24,353,-13.00,-0.66,0.11,9.29,12:49:52,34.053375N,-113.300644W,22900.30,15.31,17
8302463,5.94,21063.47,375,-13.01,-0.22,0.10,9.41,12:49:53,34.053421N,-113.300583W,22904.90,16.48,17
8303464,5.90,21289.20,406,-13.05,-0.58,-0.04,9.85,12:49:54,34.053467N,-113.300507W,22909.10,17.39,17
8304465,5.88,20991.53,260,-13.00,-0.14,0.18,10.20,12:49:55,34.053509N,-113.300438W,22912.50,18.11,17
8305466,5.96,20952.11,360,-13.01,-0.59,-0.40,10.31,12:49:56,34.053551N,-113.300377W,22915.60,18.09,17
8306467,6.36,21008.15,321,-12.99,-0.64,0.06,10.39,12:49:57,34.053596N,-113.300316W,22918.80,17.12,16
8307468,6.25,21057.01,348,-13.04,-0.42,-0.76,10.44,12:49:58,34.053638N,-113.300240W,22922.30,16.91,16
8308469,6.17,21093.29,370,-12.98,-0.78,-0.54,10.34,12:49:59,34.053688N,-113.300171W,22926.20,17.51,16
8309470,6.12,21123.28,321,-13.03,-0.36,0.00,10.12,12:50:0,34.053730N,-113.300125W,22930.50,17.54,16
8310471,6.07,21157.38,341,-13.00,-0.05,0.08,9.95,12:50:1,34.053780N,-113.300056W,22934.90,16.85,16
8311472,6.03,21306.75,372,-13.00,-0.24,-0.13,9.94,12:50:2,34.053825N,-113.300003W,22939.50,16.36,16
8312473,5.99,21496.67,395,-12.97,-0.15,-0.24,10.00,12:50:3,34.053867N,-113.299957W,22944.00,15.86,16
8313474,5.98,21153.43,97,-13.00,-0.50,-0.71,9.94,12:50:4,34.053917N,-113.299919W,22948.20,14.46,16
8314475,6.04,21011.99,384,-12.98,-0.33,-0.22,10.06,12:50:5,34.053959N,-113.299889W,22952.30,12.88,16
8315476,6.52,20947.04,326,-12.97,-0.09,0.22,10.22,12:50:6,34.054005N,-113.299866W,22956.20,12.29,16
8316477,6.87,21011.99,345,-12.98,-0.11,-0.49,10.27,12:50:7,34.054047N,-113.299828W,22960.10,12.24,16
8317478,6.69,21062.18,326,-13.00,-0.36,0.07,10.25,12:50:8,34.054085N,-113.299805W,22964.20,12.24,16
8318479,6.53,21101.10,355,-12.96,-0.47,-0.17,10.08,12:50:9,34.054127N,-113.299767W,22968.50,12.52,16
8319480,6.41,21135.06,327,-13.00,-0.31,-0.34,9.83,12:50:10,34.054173N,-113.299728W,22972.90,13.49,16
8320481,6.32,21154.75,308,-12.96,-0.37,-0.31,9.62,12:50:11,34.054214N,-113.299675W,22977.20,14.42,16
8321482,6.28,21091.99,366,-12.91,-0.30,-0.33,9.87,12:50:12,34.054260N,-113.299622W,22981.30,14.97,16
8322483,6.63,20901.66,408,-12.95,-0.21,0.17,10.09,12:50:13,34.054302N,-113.299561W,22985.00,15.73,16
8323484,6.94,21150.80,387,-12.95,-0.56,-0.09,10.06,12:50:14,34.054344N,-113.299492W,22988.50,16.85,16
8324485,6.77,21285.16,370,-12.93,0.14,-0.41,10.07,12:50:15,34.054386N,-113.299431W,22992.00,17.61,16
8325486,6.63,21290.55,341,-12.93,0.17,-0.06,10.18,12:50:16,34.054428N,-113.299370W,22995.60,17.53,16
8326487,6.52,21278.43,318,-12.92,-0.30,-0.42,10.21,12:50:17,34.054466N,-113.299301W,22999.10,17.25,16
8327488,6.45,21275.74,360,-12.94,-0.50,-0.66,10.16,12:50:18,34.054504N,-113.299225W,23002.70,17.16,16
8328489,6.41,21271.71,325,-12.93,-0.28,-0.11,10.05,12:50:19,34.054543N,-113.299171W,23006.50,16.39,16
8329490,6.39,21266.34,376,-12.91,-0.53,-0.32,9.98,12:50:20,34.054577N,-113.299110W,23010.20,14.64,16
8330491,6.45,21267.68,321,-12.93,-0.08,-0.18,9.99,12:50:21,34.054611N,-113.299057W,23014.00,14.64,16
8331492,6.44,21267.68,330,-12.91,-0.20,-0.19,9.99,12:50:22,34.054646N,-113.298996W,23017.70,14.12,16
8332493,6.47,21128.51,361,-12.92,-0.73,-0.45,9.96,12:50:23,34.054680N,-113.298943W,23021.30,13.40,16
8333494,6.92,21049.26,366,-12.91,-0.45,-0.38,10.05,12:50:24,34.054718N,-113.298889W,23024.70,13.43,16
8334495,7.23,20987.70,358,-12.93,-0.34,0.16,10.17,12:50:25,34.054760N,-113.298851W,23028.00,14.41,16
8335496,7.06,21023.53,361,-12.91,-0.51,0.01,10.20,12:50:26,34.054810N,-113.298805W,23031.40,15.15,16
8336497,6.93,21032.52,374,-12.92,-0.06,-0.32,10.20,12:50:27,34.054859N,-113.298767W,23034.80,15.15,16
8337499,6.83,21203.62,352,-12.90,-0.21,-0.35,10.21,12:50:28,34.054916N,-113.298714W,23038.50,17.54,16
8338499,6.77,21236.89,348,-12.93,-0.53,-0.33,10.22,12:50:29,34.054977N,-113.298660W,23042.20,18.93,16
8339500,6.73,21305.40,347,-12.92,-0.05,-0.41,10.16,12:50:30,34.055038N,-113.298615W,23046.10,19.38,16
8340501,6.67,21309.46,333,-12.91,0.09,0.04,10.10,12:50:31,34.055099N,-113.298546W,23050.10,19.33,16
8341502,6.58,21325.72,345,-12.90,-0.27,-0.23,10.00,12:50:32,34.055161N,-113.298492W,23054.20,19.60,16
8342503,6.52,21413.27,386,-12.90,-0.72,-0.33,9.87,12:50:33,34.055222N,-113.298431W,23058.30,20.00,16
8343504,6.48,21578.54,371,-12.90,-0.42,-0.22,9.86,12:50:34,34.055283N,-113.298370W,23062.40,19.98,16
8344505,6.47,21711.02,356,-12.91,-0.13,-0.18,9.93,12:50:35,34.055340N,-113.298302W,23066.20,20.02,16
8345506,6.48,21796.27,362,-12.91,-0.40,-0.11,10.03,12:50:36,34.055397N,-113.298225W,23069.80,20.90,16
8346507,6.50,21885.93,387,-12.90,-0.50,-0.12,10.06,12:50:37,34.055454N,-113.298149W,23073.20,21.67,16
8347508,6.51,21663.12,377,-12.91,-0.22,-0.52,10.16,12:50:38,34.055504N,-113.298073W,23076.60,21.39,17
8348509,6.53,21750.54,364,-12.90,-0.03,-0.65,10.31,12:50:39,34.055553N,-113.297981W,23079.90,20.79,17
8349510,6.56,21721.24,330,-12.89,-0.51,-0.26,10.34,12:50:40,34.055603N,-113.297905W,23083.40,20.73,17
8350511,6.59,21625.68,345,-12.89,-0.67,-0.56,10.31,12:50:41,34.055649N,-113.297829W,23087.20,20.41,17
8351512,6.56,21558.66,342,-12.90,-0.31,-0.31,10.15,12:50:42,34.055695N,-113.297737W,23091.10,19.54,17
8352513,6.52,21496.67,357,-12.91,-0.54,-0.10,9.96,12:50:43,34.055740N,-113.297676W,23095.30,18.92,17
8353514,6.52,21449.25,337,-12.90,-0.33,-0.37,9.89,12:50:44,34.055786N,-113.297600W,23099.50,18.90,17
8354515,6.54,21422.94,292,-12.91,-0.08,-0.23,9.89,12:50:45,34.055832N,-113.297539W,23103.60,18.04,17
8355516,6.58,21398.12,330,-12.89,-0.30,0.22,9.97,12:50:46,34.055874N,-113.297470W,23107.60,16.69,17
8356517,6.59,21383.02,314,-12.88,-0.35,0.05,10.09,12:50:47,34.055923N,-113.297409W,23111.30,15.72,17
8357518,6.60,21435.38,391,-12.91,-0.65,-0.36,10.12,12:50:48,34.055969N,-113.297356W,23114.90,15.48,17
8358519,6.61,21605.63,397,-12.90,-0.75,0.13,10.15,12:50:49,34.056011N,-113.297318W,23118.50,15.50,17
8359520,6.63,21763.78,372,-12.90,-0.16,-0.22,10.24,12:50:50,34.056057N,-113.297264W,23122.20,15.18,17
8360521,6.67,21824.50,374,-12.89,-0.07,-0.17,10.25,12:50:51,34.056099N,-113.297203W,23125.90,15.25,17
8361522,6.71,21934.38,404,-12.88,-0.19,-0.30,10.09,12:50:52,34.056137N,-113.297150W,23129.70,15.95,17
8362523,6.76,21578.54,413,-12.90,-0.37,-0.22,9.95,12:50:53,34.056175N,-113.297089W,23133.60,16.32,17
8363524,6.81,21709.56,350,-12.88,-0.11,-0.47,9.94,12:50:54,34.056210N,-113.297028W,23137.60,16.26,17
8364525,6.84,21743.20,379,-12.89,-0.56,-0.07,9.96,12:50:55,34.056244N,-113.296944W,23141.60,16.92,17
8365526,6.88,21572.85,86,-12.89,-0.42,0.24,10.05,12:50:56,34.056271N,-113.296867W,23145.50,18.53,17
8366527,6.91,21399.50,340,-12.89,-0.24,-0.11,10.12,12:50:57,34.056301N,-113.296783W,23149.10,19.62,17
8367528,7.38,21385.76,351,-12.89,-0.59,-0.06,10.18,12:50:58,34.056332N,-113.296692W,23152.60,19.89,17
8368529,7.32,21440.93,352,-12.89,0.09,-0.30,10.18,12:50:59,34.056358N,-113.296600W,23156.30,20.14,17
8369530,7.26,21141.61,361,-12.89,-0.22,-0.10,10.14,12:51:0,34.056389N,-113.296509W,23160.10,20.33,17
8370531,7.31,21190.37,332,-12.89,-0.28,-0.23,10.19,12:51:1,34.056419N,-113.296425W,23163.90,19.50,17
8371532,7.41,21232.88,331,-12.90,-0.38,-0.19,10.16,12:51:2,34.056454N,-113.296349W,23167.70,18.28,17
8372533,7.34,21271.71,357,-12.88,-0.53,-0.28,10.12,12:51:3,34.056484N,-113.296257W,23171.80,18.21,17
8373534,7.30,21321.65,361,-12.89,-0.67,-0.34,9.97,12:51:4,34.056515N,-113.296181W,23176.00,18.45,17
8374535,7.23,21449.25,352,-12.86,-0.19,-0.32,9.86,12:51:5,34.056549N,-113.296104W,23180.20,18.01,17
8375536,7.17,21443.70,338,-12.87,0.17,-0.49,9.88,12:51:6,34.056583N,-113.296028W,23184.30,17.10,17
8376537,7.13,21447.86,353,-12.88,0.10,-0.18,10.05,12:51:7,34.056622N,-113.295959W,23188.30,16.44,17
8377538,7.06,21443.70,352,-12.88,-0.44,-0.45,10.16,12:51:8,34.056660N,-113.295898W,23192.10,15.96,17
8378539,6.94,21442.31,356,-12.88,-0.54,-0.22,10.14,12:51:9,34.056702N,-113.295845W,23195.80,15.04,17
8379540,6.80,21435.38,350,-12.86,-0.52,-0.21,10.16,12:51:10,34.056740N,-113.295792W,23199.50,14.43,17
8380541,6.71,21431.23,357,-12.85,-0.43,-0.29,10.26,12:51:11,34.056778N,-113.295746W,23203.30,14.66,17
8381542,6.74,21428.46,360,-12.88,-0.33,-0.46,10.29,12:51:12,34.056808N,-113.295677W,23207.20,15.37,17
8382543,6.76,21424.32,327,-12.86,-0.17,-0.17,10.18,12:51:13,34.056839N,-113.295616W,23211.30,15.78,17
8383544,6.78,21418.79,326,-12.85,-0.14,0.20,10.05,12:51:14,34.056866N,-113.295555W,23215.60,16.01,17
8384545,6.80,21414.65,343,-12.86,-0.18,-0.01,9.96,12:51:15,34.056896N,-113.295479W,23219.90,16.68,17
8385546,6.85,21416.03,294,-12.87,-0.18,-0.36,9.76,12:51:16,34.056927N,-113.295395W,23224.20,17.35,17
8386547,6.89,21418.79,309,-12.82,-0.36,-0.50,9.56,12:51:17,34.056961N,-113.295334W,23228.50,17.99,17
8387548,6.93,21417.41,325,-12.81,-0.17,-0.60,9.72,12:51:18,34.056988N,-113.295242W,23232.40,19.12,17
8388549,6.98,21219.56,403,-12.82,0.03,-0.11,10.13,12:51:19,34.057022N,-113.295158W,23235.70,20.73,17
8389550,7.50,21183.75,380,-12.79,-0.42,-0.13,10.27,12:51:20,34.057049N,-113.295052W,23238.70,21.64,17
8390551,7.43,21212.91,357,-12.85,-0.39,-0.81,10.25,12:51:21,34.057072N,-113.294952W,23241.70,21.39,17
8391552,7.38,21359.75,348,-12.85,-0.11,-0.91,10.40,12:51:22,34.057098N,-113.294861W,23244.80,20.32,17
8392553,7.35,21400.87,330,-12.84,-0.16,-0.31,10.52,12:51:23,34.057121N,-113.294769W,23248.20,19.22,17
8393554,7.32,21413.27,307,-12.82,-0.35,-0.76,10.46,12:51:24,34.057148N,-113.294685W,23251.80,18.29,17
8394555,7.31,21421.55,328,-12.84,-0.37,-0.71,10.14,12:51:25,34.057175N,-113.294601W,23255.90,17.79,17
8395556,7.31,21321.65,102,-12.77,0.06,-0.42,9.96,12:51:26,34.057201N,-113.294525W,23260.40,17.86,17
8396557,7.70,21493.87,352,-12.82,-0.51,-0.23,9.87,12:51:27,34.057232N,-113.294441W,23265.00,18.19,17
8397558,7.62,21492.47,321,-12.82,0.29,-0.42,9.94,12:51:28,34.057259N,-113.294365W,23269.60,17.25,17
8398559,7.54,21479.88,365,-12.72,-0.16,0.35,10.14,12:51:29,34.057281N,-113.294296W,23274.00,15.40,17
8399560,7.48,21395.37,355,-12.76,-0.59,-0.36,10.22,12:51:30,34.057308N,-113.294235W,23278.10,13.78,17
8400561,7.79,21407.76,348,-12.79,0.50,-0.22,10.27,12:51:31,34.057335N,-113.294167W,23282.20,12.41,17
8401562,7.76,21457.59,365,-12.79,-0.47,-0.04,10.22,12:51:32,34.057358N,-113.294128W,23286.50,11.41,17
8402563,7.67,21619.94,356,-12.75,-0.26,-0.19,10.24,12:51:33,34.057381N,-113.294083W,23291.10,10.99,17
8403564,7.62,21793.31,366,-12.75,-0.08,-0.27,10.15,12:51:34,34.057400N,-113.294029W,23295.80,12.18,17
8404565,7.58,21785.91,353,-12.75,-0.41,-0.27,10.01,12:51:35,34.057419N,-113.293976W,23300.70,13.46,17
8405566,7.55,21727.08,316,-12.74,-0.13,-0.14,9.94,12:51:36,34.057430N,-113.293915W,23305.60,13.73,17
8406567,7.50,21679.04,341,-12.79,-0.08,-0.12,9.88,12:51:37,34.057446N,-113.293846W,23310.50,14.00,17
8407568,7.49,21631.42,326,-12.71,-0.37,-0.44,9.90,12:51:38,34.057461N,-113.293785W,23315.20,14.66,17
8408569,7.48,21602.77,318,-12.72,-0.65,-0.49,9.90,12:51:39,34.057468N,-113.293709W,23319.70,15.56,17
