time_since_start,bme_temp,bme_alt,uv,ism_temp,acc_x,acc_y,acc_z,gps_time,latitude,longitude,gps_alt,speed,sats
18319470,32.60,1059.94,77,22.32,-8.47,4.12,2.79,3:36:49,34.219360N,-112.948669W,1116.60,0.01,15
18320471,32.62,1059.94,77,22.27,-8.49,4.12,2.79,3:36:50,34.219360N,-112.948669W,1116.60,0.02,15
18321472,32.64,1059.94,75,22.30,-8.50,4.10,2.79,3:36:51,34.219360N,-112.948669W,1116.60,0.00,15
18322473,32.65,1059.94,75,22.24,-8.50,4.11,2.79,3:36:52,34.219360N,-112.948669W,1116.60,0.02,15
18323474,32.68,1059.85,75,22.32,-8.49,4.11,2.80,3:36:53,34.219360N,-112.948669W,1116.60,0.01,15
18324475,32.72,1059.85,75,22.30,-8.49,4.12,2.80,3:36:54,34.219360N,-112.948669W,1116.60,0.01,15
18325476,32.76,1059.76,77,22.28,-8.47,4.10,2.79,3:36:55,34.219360N,-112.948669W,1116.60,0.01,15
18326477,32.78,1059.85,75,22.30,-8.49,4.12,2.79,3:36:56,34.219360N,-112.948669W,1116.60,0.01,15
18327478,32.81,1059.85,74,22.30,-8.48,4.12,2.79,3:36:57,34.219360N,-112.948669W,1116.60,0.00,15
18328479,32.83,1059.85,75,22.29,-8.48,4.13,2.79,3:36:58,34.219360N,-112.948669W,1116.60,0.01,15
18329480,32.85,1059.85,75,22.25,-8.50,4.12,2.79,3:36:59,34.219360N,-112.948669W,1116.60,0.00,15
18330481,32.88,1059.94,75,22.27,-8.49,4.10,2.81,3:37:0,34.219360N,-112.948669W,1116.60,0.01,15
18331482,32.91,1060.04,74,22.35,-8.50,4.10,2.79,3:37:1,34.219360N,-112.948669W,1116.60,0.01,15
18332483,32.94,1060.22,70,22.33,-8.51,4.15,2.80,3:37:2,34.219360N,-112.948669W,1116.60,0.01,15
18333484,32.96,1060.41,70,22.30,-8.48,4.13,2.79,3:37:3,34.219360N,-112.948669W,1116.60,0.02,15
18334485,32.98,1060.50,70,22.26,-8.49,4.13,2.80,3:37:4,34.219360N,-112.948669W,1116.60,0.01,15
18335486,32.99,1060.41,73,22.32,-8.49,4.11,2.78,3:37:5,34.219360N,-112.948669W,1116.60,0.01,15
18336487,33.01,1060.31,74,22.33,-8.51,4.12,2.79,3:37:6,34.219360N,-112.948669W,1116.60,0.00,15
18337488,33.03,1060.22,74,22.31,-8.53,4.08,2.80,3:37:7,34.219360N,-112.948669W,1116.60,0.01,15
18338489,33.06,1060.22,72,22.32,-8.51,4.09,2.80,3:37:8,34.219360N,-112.948669W,1116.60,0.01,15
18339490,33.08,1060.31,65,22.31,-8.48,4.14,2.80,3:37:9,34.219360N,-112.948669W,1116.50,0.01,15
18340491,33.09,1060.31,68,22.32,-8.49,4.14,2.78,3:37:10,34.219360N,-112.948669W,1116.50,0.02,15
18341492,33.09,1060.31,68,22.32,-8.51,4.13,2.79,3:37:11,34.219360N,-112.948669W,1116.50,0.01,15
18342493,33.11,1060.31,70,22.32,-8.52,4.12,2.79,3:37:12,34.219360N,-112.948669W,1116.50,0.01,15
18343494,33.13,1060.22,72,22.32,-8.51,4.11,2.82,3:37:13,34.219360N,-112.948669W,1116.50,0.01,15
18344495,33.16,1060.22,72,22.35,-8.49,4.13,2.78,3:37:14,34.219360N,-112.948669W,1116.50,0.01,15
18345496,33.18,1060.59,72,22.32,-8.48,4.13,2.81,3:37:15,34.219360N,-112.948669W,1116.50,0.02,15
18346497,33.21,1060.50,73,22.32,-8.51,4.13,2.80,3:37:16,34.219360N,-112.948669W,1116.50,0.01,15
18347498,33.23,1060.59,73,22.32,-8.49,4.11,2.79,3:37:17,34.219360N,-112.948669W,1116.50,0.01,15
18348499,33.25,1060.68,73,22.30,-8.49,4.12,2.80,3:37:18,34.219360N,-112.948669W,1116.50,0.01,15
18349500,33.26,1060.59,73,22.29,-8.50,4.12,2.79,3:37:19,34.219360N,-112.948669W,1116.50,0.02,15
18350501,33.28,1060.59,74,22.34,-8.49,4.12,2.79,3:37:20,34.219360N,-112.948669W,1116.50,0.01,15
18351502,33.30,1060.68,72,22.35,-8.50,4.11,2.79,3:37:21,34.219360N,-112.948669W,1116.50,0.01,15
18352503,33.33,1060.78,73,22.35,-8.49,4.13,2.79,3:37:22,34.219360N,-112.948669W,1116.50,0.00,15
18353504,33.36,1060.68,72,22.40,-8.49,4.11,2.79,3:37:23,34.219360N,-112.948669W,1116.50,0.02,15
18354505,33.38,1060.68,72,22.39,-8.48,4.13,2.79,3:37:24,34.219360N,-112.948669W,1116.50,0.02,15
18355506,33.40,1060.87,69,22.31,-8.48,4.13,2.79,3:37:25,34.219360N,-112.948669W,1116.50,0.01,15
18356507,33.42,1060.96,69,22.32,-8.50,4.13,2.79,3:37:26,34.219360N,-112.948669W,1116.50,0.03,15
18357508,33.44,1061.05,68,22.32,-8.47,4.15,2.78,3:37:27,34.219360N,-112.948669W,1116.50,0.02,15
18358509,33.45,1061.24,69,22.35,-8.49,4.14,2.79,3:37:28,34.219360N,-112.948669W,1116.50,0.02,15
18359510,33.47,1061.14,69,22.35,-8.48,4.14,2.80,3:37:29,34.219360N,-112.948669W,1116.50,0.01,15
18360511,33.48,1061.05,72,22.32,-8.48,4.13,2.79,3:37:30,34.219360N,-112.948669W,1116.50,0.01,15
18361512,33.50,1061.05,70,22.37,-8.50,4.12,2.79,3:37:31,34.219360N,-112.948669W,1116.50,0.01,15
18362513,33.52,1061.05,69,22.35,-8.50,4.13,2.79,3:37:32,34.219360N,-112.948669W,1116.50,0.02,15
18363514,33.54,1060.96,68,22.34,-8.45,4.15,2.80,3:37:33,34.219360N,-112.948669W,1116.50,0.01,15
18364515,33.56,1060.87,64,22.33,-8.48,4.15,2.79,3:37:34,34.219360N,-112.948669W,1116.50,0.00,15
18365516,33.57,1061.14,64,22.30,-8.50,4.13,2.79,3:37:35,34.219360N,-112.948669W,1116.50,0.01,15
18366517,33.60,1061.24,63,22.33,-8.55,4.14,2.79,3:37:36,34.219360N,-112.948669W,1116.50,0.01,15
18367518,33.62,1061.14,62,22.33,-8.46,4.14,2.79,3:37:37,34.219360N,-112.948669W,1116.50,0.02,15
18368519,33.64,1061.14,70,22.33,-8.45,4.16,2.78,3:37:38,34.219360N,-112.948669W,1116.50,0.01,15
18369520,33.66,1061.05,64,22.32,-8.41,4.14,2.81,3:37:39,34.219360N,-112.948669W,1116.50,0.02,15
18370521,33.67,1060.96,68,22.32,-8.46,4.13,2.80,3:37:40,34.219360N,-112.948669W,1116.50,0.02,15
18371522,33.68,1060.87,68,22.31,-8.48,4.17,2.81,3:37:41,34.219360N,-112.948669W,1116.50,0.01,15
18372523,33.69,1060.87,70,22.37,-8.47,4.15,2.79,3:37:42,34.219360N,-112.948669W,1116.50,0.01,15
18373524,33.70,1060.96,68,22.37,-8.51,4.10,2.80,3:37:43,34.219360N,-112.948669W,1116.50,0.01,15
18374525,33.70,1060.96,67,22.33,-8.52,4.09,2.79,3:37:44,34.219360N,-112.948669W,1116.60,0.01,15
18375527,33.72,1061.05,64,22.35,-8.52,4.14,2.79,3:37:45,34.219360N,-112.948669W,1116.60,0.01,15
18376527,33.73,1061.05,65,22.37,-8.39,4.14,2.78,3:37:46,34.219360N,-112.948669W,1116.50,0.02,14
18377528,33.73,1060.87,65,22.39,-8.51,4.19,2.79,3:37:47,34.219360N,-112.948669W,1116.60,0.03,14
18378529,33.75,1061.05,69,22.34,-8.44,4.11,2.82,3:37:48,34.219360N,-112.948669W,1116.60,0.01,14
18379530,33.76,1060.87,68,22.37,-8.50,4.07,2.79,3:37:49,34.219360N,-112.948669W,1116.60,0.01,14
18380531,33.75,1060.87,70,22.37,-8.52,4.13,2.81,3:37:50,34.219360N,-112.948669W,1116.50,0.02,14
18381532,33.76,1060.68,70,22.35,-8.48,4.11,2.79,3:37:51,34.219360N,-112.948669W,1116.60,0.01,15
18382533,33.77,1060.68,70,22.37,-8.50,4.12,2.81,3:37:52,34.219360N,-112.948669W,1116.50,0.01,15
18383534,33.80,1060.68,72,22.38,-8.49,4.12,2.80,3:37:53,34.219360N,-112.948669W,1116.60,0.02,15
18384535,33.81,1060.59,70,22.41,-8.50,4.13,2.82,3:37:54,34.219360N,-112.948669W,1116.50,0.02,15
18385536,33.83,1060.68,69,22.35,-8.51,4.12,2.79,3:37:55,34.219360N,-112.948669W,1116.50,0.01,15
18386537,33.84,1060.59,73,22.36,-8.50,4.08,2.79,3:37:56,34.219360N,-112.948669W,1116.50,0.02,15
18387538,33.85,1060.59,69,22.33,-8.52,4.12,2.79,3:37:57,34.219360N,-112.948669W,1116.50,0.00,15
18388539,33.85,1060.50,70,22.38,-8.51,4.08,2.81,3:37:58,34.219360N,-112.948669W,1116.50,0.03,15
18389541,33.85,1060.68,68,22.35,-8.50,4.08,2.79,3:37:59,34.219360N,-112.948669W,1116.60,0.01,15
18390541,33.85,1060.68,68,22.37,-8.49,4.13,2.79,3:38:0,34.219360N,-112.948669W,1116.60,0.01,15
18391542,33.85,1060.68,68,22.40,-8.49,4.14,2.79,3:38:1,34.219360N,-112.948669W,1116.60,0.01,15
18392543,33.87,1060.78,69,22.38,-8.47,4.11,2.81,3:38:2,34.219360N,-112.948669W,1116.50,0.02,15
18393544,33.89,1060.96,67,22.39,-8.47,4.15,2.79,3:38:3,34.219360N,-112.948669W,1116.60,0.00,15
18394545,33.91,1061.14,67,22.37,-8.50,4.14,2.80,3:38:4,34.219360N,-112.948669W,1116.60,0.02,15
18395546,33.91,1061.14,69,22.40,-8.49,4.12,2.79,3:38:5,34.219360N,-112.948669W,1116.60,0.01,15
18396547,33.93,1061.14,67,22.38,-8.49,4.10,2.79,3:38:6,34.219360N,-112.948669W,1116.60,0.02,15
18397548,33.95,1061.24,68,22.39,-8.48,4.15,2.80,3:38:7,34.219360N,-112.948669W,1116.60,0.01,15
18398549,33.96,1061.33,68,22.38,-8.49,4.13,2.80,3:38:8,34.219360N,-112.948669W,1116.60,0.01,15
18399550,33.98,1061.33,68,22.33,-8.49,4.12,2.79,3:38:9,34.219360N,-112.948669W,1116.60,0.03,15
18400551,33.98,1061.42,69,22.40,-8.48,4.10,2.79,3:38:10,34.219360N,-112.948669W,1116.60,0.01,15
18401552,33.99,1061.42,69,22.39,-8.48,4.13,2.79,3:38:11,34.219360N,-112.948669W,1116.60,0.01,15
18402553,34.00,1061.42,68,22.37,-8.48,4.13,2.79,3:38:12,34.219360N,-112.948669W,1116.60,0.01,15
18403554,34.03,1061.33,68,22.37,-8.48,4.13,2.79,3:38:13,34.219360N,-112.948669W,1116.60,0.02,15
18404555,34.05,1061.33,67,22.37,-8.48,4.12,2.79,3:38:14,34.219360N,-112.948669W,1116.60,0.01,15
18405556,34.07,1061.33,67,22.37,-8.48,4.11,2.78,3:38:15,34.219360N,-112.948669W,1116.60,0.03,15
18406557,34.08,1061.42,67,22.40,-8.49,4.13,2.79,3:38:16,34.219360N,-112.948669W,1116.60,0.02,15
18407558,34.08,1061.42,68,22.41,-8.50,4.14,2.79,3:38:17,34.219360N,-112.948669W,1116.60,0.05,15
18408559,34.07,1061.42,67,22.38,-8.48,4.14,2.80,3:38:18,34.219360N,-112.948669W,1116.60,0.01,15
18409560,34.06,1061.42,65,22.38,-8.50,4.12,2.79,3:38:19,34.219360N,-112.948669W,1116.60,0.02,15
18410561,34.07,1061.33,67,22.37,-8.50,4.12,2.79,3:38:20,34.219360N,-112.948669W,1116.60,0.02,15
18411562,34.09,1061.33,65,22.44,-8.49,4.12,2.79,3:38:21,34.219360N,-112.948669W,1116.60,0.01,15
18412563,34.09,1061.33,65,22.38,-8.49,4.13,2.79,3:38:22,34.219360N,-112.948669W,1116.60,0.02,15
18413564,34.08,1061.42,68,22.45,-8.48,4.13,2.79,3:38:23,34.219360N,-112.948669W,1116.60,0.06,15
18414565,34.07,1061.42,65,22.42,-8.48,4.13,2.79,3:38:24,34.219360N,-112.948669W,1116.60,0.06,16
18415566,34.06,1061.42,65,22.40,-8.48,4.13,2.79,3:38:25,34.219360N,-112.948669W,1116.60,0.03,16
18416567,34.07,1061.33,67,22.41,-8.48,4.14,2.79,3:38:26,34.219360N,-112.948669W,1116.60,0.01,16
18417568,34.07,1061.33,65,22.41,-8.49,4.13,2.79,3:38:27,34.219360N,-112.948669W,1116.60,0.01,16
18418569,34.08,1061.24,64,22.41,-8.50,4.14,2.79,3:38:28,34.219360N,-112.948669W,1116.60,0.02,16
18419570,34.08,1060.96,63,22.41,-8.44,4.13,2.79,3:38:29,34.219360N,-112.948669W,1116.60,0.02,16
18420571,34.08,1061.14,67,22.41,-8.50,4.11,2.79,3:38:30,34.219360N,-112.948669W,1116.60,0.02,16
18421572,34.07,1060.96,64,22.42,-8.47,4.17,2.80,3:38:31,34.219360N,-112.948669W,1116.60,0.01,16
18422573,34.06,1060.78,64,22.38,-8.52,4.23,2.78,3:38:32,34.219360N,-112.948669W,1116.60,0.01,16
18423574,34.07,1060.68,64,22.38,-8.45,4.14,2.78,3:38:33,34.219360N,-112.948669W,1116.60,0.01,16
18424575,34.06,1060.59,64,22.41,-8.50,4.11,2.77,3:38:34,34.219360N,-112.948669W,1116.60,0.01,16
18425576,34.05,1060.50,64,22.43,-8.47,4.10,2.78,3:38:35,34.219360N,-112.948669W,1116.60,0.02,16
18426577,34.02,1060.59,64,22.41,-8.45,4.15,2.79,3:38:36,34.219360N,-112.948669W,1116.60,0.01,16
18427578,34.00,1060.50,65,22.41,-8.47,4.18,2.79,3:38:37,34.219360N,-112.948669W,1116.60,0.02,16
18428579,33.97,1060.68,65,22.41,-8.46,4.14,2.79,3:38:38,34.219360N,-112.948669W,1116.50,0.01,16
18429580,33.96,1060.50,63,22.39,-8.47,4.13,2.79,3:38:39,34.219360N,-112.948669W,1116.60,0.01,16
18430581,33.93,1060.59,64,22.41,-8.52,4.14,2.81,3:38:40,34.219360N,-112.948669W,1116.60,0.00,16
18431582,33.92,1060.50,67,22.44,-8.48,4.14,2.78,3:38:41,34.219360N,-112.948669W,1116.60,0.02,16
18432583,33.91,1060.50,67,22.41,-8.50,4.13,2.79,3:38:42,34.219360N,-112.948669W,1116.60,0.00,16
18433584,33.90,1060.50,67,22.39,-8.50,4.13,2.79,3:38:43,34.219360N,-112.948669W,1116.60,0.01,16
18434585,33.91,1060.59,67,22.41,-8.50,4.12,2.80,3:38:44,34.219360N,-112.948669W,1116.60,0.01,16
18435586,33.91,1060.50,67,22.41,-8.48,4.15,2.79,3:38:45,34.219360N,-112.948669W,1116.60,0.01,16
18436587,33.91,1060.31,67,22.45,-8.47,4.14,2.79,3:38:46,34.219360N,-112.948669W,1116.60,0.01,16
18437588,33.92,1060.31,68,22.41,-8.50,4.13,2.79,3:38:47,34.219360N,-112.948669W,1116.60,0.02,16
18438589,33.93,1060.22,67,22.41,-8.49,4.14,2.80,3:38:48,34.219360N,-112.948669W,1116.60,0.01,16
18439590,33.92,1060.31,67,22.43,-8.49,4.11,2.79,3:38:49,34.219360N,-112.948669W,1116.60,0.01,16
18440591,33.93,1060.31,67,22.41,-8.51,4.12,2.79,3:38:50,34.219360N,-112.948669W,1116.60,0.01,16
18441592,33.91,1060.22,65,22.41,-8.47,4.13,2.79,3:38:51,34.219360N,-112.948669W,1116.60,0.01,16
18442593,33.90,1060.41,68,22.41,-8.46,4.17,2.79,3:38:52,34.219360N,-112.948669W,1116.60,0.00,16
18443594,33.89,1060.50,67,22.43,-8.49,4.16,2.80,3:38:53,34.219360N,-112.948669W,1116.50,0.02,16
18444595,33.89,1060.59,67,22.42,-8.48,4.14,2.78,3:38:54,34.219360N,-112.948669W,1116.60,0.01,16
18445596,33.88,1060.68,68,22.42,-8.49,4.10,2.79,3:38:55,34.219360N,-112.948669W,1116.60,0.01,16
18446597,33.88,1060.78,68,22.41,-8.51,4.11,2.79,3:38:56,34.219360N,-112.948669W,1116.60,0.00,16
18447598,33.88,1060.87,68,22.42,-8.51,4.11,2.79,3:38:57,34.219360N,-112.948669W,1116.60,0.01,16
18448599,33.89,1060.96,67,22.43,-8.49,4.12,2.80,3:38:58,34.219360N,-112.948669W,1116.60,0.02,16
18449600,33.90,1061.05,68,22.37,-8.48,4.13,2.79,3:38:59,34.219360N,-112.948669W,1116.60,0.01,16
18450601,33.91,1061.14,68,22.43,-8.49,4.12,2.79,3:39:0,34.219360N,-112.948669W,1116.60,0.02,16
18451602,33.91,1061.14,69,22.38,-8.48,4.11,2.79,3:39:1,34.219360N,-112.948669W,1116.60,0.03,16
18452603,33.92,1061.05,69,22.43,-8.50,4.11,2.80,3:39:2,34.219360N,-112.948669W,1116.60,0.02,16
18453604,33.93,1061.14,69,22.44,-8.49,4.12,2.79,3:39:3,34.219360N,-112.948669W,1116.60,0.01,16
18454605,33.93,1061.33,68,22.42,-8.48,4.14,2.78,3:39:4,34.219360N,-112.948669W,1116.60,0.03,16
18455606,33.91,1061.05,69,22.42,-8.48,4.14,2.79,3:39:5,34.219360N,-112.948669W,1116.60,0.03,16
18456607,33.91,1060.87,68,22.45,-8.48,4.12,2.80,3:39:6,34.219360N,-112.948669W,1116.60,0.01,16
18457608,33.91,1060.78,68,22.41,-8.51,4.13,2.79,3:39:7,34.219360N,-112.948669W,1116.60,0.01,16
18458609,33.92,1060.78,68,22.41,-8.48,4.13,2.79,3:39:8,34.219360N,-112.948669W,1116.60,0.01,16
18459610,33.93,1060.68,68,22.44,-8.48,4.13,2.80,3:39:9,34.219360N,-112.948669W,1116.60,0.00,16
18460611,33.92,1060.87,68,22.43,-8.49,4.11,2.79,3:39:10,34.219360N,-112.948669W,1116.60,0.02,16
18461612,33.92,1060.96,68,22.43,-8.51,4.12,2.79,3:39:11,34.219360N,-112.948669W,1116.60,0.01,16
18462613,33.93,1060.87,68,22.42,-8.50,4.13,2.79,3:39:12,34.219360N,-112.948669W,1116.60,0.00,16
18463614,33.94,1060.96,68,22.42,-8.51,4.13,2.78,3:39:13,34.219360N,-112.948669W,1116.60,0.05,16
18464615,33.95,1060.68,68,22.43,-8.47,4.11,2.79,3:39:14,34.219360N,-112.948669W,1116.60,0.01,16
18465616,33.94,1060.68,68,22.42,-8.49,4.13,2.78,3:39:15,34.219360N,-112.948669W,1116.60,0.01,16
18466617,33.95,1060.78,68,22.42,-8.49,4.14,2.80,3:39:16,34.219360N,-112.948669W,1116.70,0.00,16
18467618,33.94,1060.78,68,22.44,-8.49,4.18,2.79,3:39:17,34.219360N,-112.948669W,1116.60,0.02,16
18468619,33.91,1060.68,67,22.45,-8.46,4.13,2.80,3:39:18,34.219360N,-112.948669W,1116.70,0.02,16
18469620,33.88,1060.78,68,22.43,-8.48,4.15,2.79,3:39:19,34.219360N,-112.948669W,1116.70,0.01,16
18470621,33.86,1060.78,69,22.45,-8.47,4.13,2.79,3:39:20,34.219360N,-112.948669W,1116.60,0.01,16
18471622,33.87,1060.87,69,22.46,-8.49,4.12,2.81,3:39:21,34.219360N,-112.948669W,1116.60,0.03,16
18472623,33.87,1060.96,69,22.43,-8.47,4.13,2.78,3:39:22,34.219360N,-112.948669W,1116.60,0.03,16
18473624,33.87,1060.96,69,22.42,-8.47,4.12,2.79,3:39:23,34.219360N,-112.948669W,1116.70,0.01,16
18474625,33.86,1061.05,69,22.45,-8.48,4.14,2.80,3:39:24,34.219360N,-112.948669W,1116.70,0.02,16
18475626,33.84,1061.14,69,22.45,-8.48,4.13,2.79,3:39:25,34.219360N,-112.948669W,1116.60,0.02,16
18476627,33.83,1061.14,68,22.44,-8.48,4.14,2.79,3:39:26,34.219360N,-112.948669W,1116.70,0.00,16
18477628,33.83,1061.14,69,22.50,-8.48,4.13,2.79,3:39:27,34.219360N,-112.948669W,1116.70,0.01,16
18478629,33.81,1061.24,68,22.44,-8.49,4.12,2.79,3:39:28,34.219360N,-112.948669W,1116.70,0.01,16
18479630,33.80,1061.14,69,22.45,-8.48,4.13,2.79,3:39:29,34.219360N,-112.948669W,1116.70,0.01,16
18480631,33.80,1061.05,68,22.42,-8.47,4.14,2.79,3:39:30,34.219360N,-112.948669W,1116.70,0.01,16
18481632,33.79,1061.14,68,22.48,-8.48,4.13,2.79,3:39:31,34.219360N,-112.948669W,1116.70,0.01,16
18482633,33.79,1061.05,67,22.44,-8.48,4.15,2.77,3:39:32,34.219360N,-112.948669W,1116.70,0.01,16
18483634,33.79,1060.87,68,22.44,-8.48,4.13,2.80,3:39:33,34.219360N,-112.948669W,1116.70,0.01,16
18484635,33.79,1060.68,68,22.47,-8.47,4.19,2.77,3:39:34,34.219360N,-112.948669W,1116.70,0.02,16
18485636,33.79,1060.50,69,22.42,-8.55,4.08,2.77,3:39:35,34.219360N,-112.948669W,1116.70,0.01,16
18486637,33.77,1060.22,68,22.44,-8.51,4.14,2.78,3:39:36,34.219357N,-112.948669W,1116.70,0.01,16
18487638,33.77,1060.13,68,22.43,-8.51,4.17,2.76,3:39:37,34.219360N,-112.948669W,1116.70,0.03,16
18488639,33.75,1060.13,63,22.40,-8.49,4.16,2.80,3:39:38,34.219360N,-112.948669W,1116.70,0.01,16
18489640,33.75,1060.13,67,22.44,-8.38,4.24,2.80,3:39:39,34.219360N,-112.948669W,1116.70,0.01,16
18490641,33.73,1060.04,69,22.44,-8.34,4.22,2.76,3:39:40,34.219360N,-112.948669W,1116.70,0.01,16
18491642,33.70,1060.04,69,22.49,-8.51,4.09,2.79,3:39:41,34.219360N,-112.948669W,1116.70,0.02,16
18492643,33.68,1059.94,70,22.42,-8.49,4.12,2.77,3:39:42,34.219360N,-112.948669W,1116.70,0.01,16
18493644,33.68,1060.22,69,22.44,-8.50,4.07,2.82,3:39:43,34.219360N,-112.948669W,1116.70,0.00,16
18494645,33.68,1060.41,70,22.50,-8.50,4.10,2.79,3:39:44,34.219360N,-112.948669W,1116.70,0.02,16
18495646,33.67,1060.59,70,22.48,-8.53,4.08,2.80,3:39:45,34.219360N,-112.948669W,1116.70,0.00,16
18496647,33.66,1060.68,70,22.50,-8.52,4.10,2.79,3:39:46,34.219360N,-112.948669W,1116.70,0.01,15
18497648,33.65,1060.78,69,22.45,-8.51,4.12,2.80,3:39:47,34.219360N,-112.948669W,1116.70,0.01,15
18498649,33.63,1060.78,68,22.51,-8.54,4.11,2.79,3:39:48,34.219360N,-112.948669W,1116.70,0.00,15
18499650,33.61,1060.78,70,22.44,-8.50,4.12,2.78,3:39:49,34.219360N,-112.948669W,1116.70,0.01,15
18500651,33.60,1060.87,70,22.44,-8.50,4.10,2.81,3:39:50,34.219360N,-112.948669W,1116.70,0.02,15
18501652,33.59,1060.96,70,22.43,-8.44,4.17,2.80,3:39:51,34.219360N,-112.948669W,1116.70,0.00,15
18502653,33.56,1061.05,70,22.48,-8.48,4.16,2.81,3:39:52,34.219360N,-112.948669W,1116.70,0.01,15
18503654,33.54,1060.68,68,22.48,-8.50,4.15,2.79,3:39:53,34.219360N,-112.948669W,1116.70,0.01,16
18504655,33.53,1060.41,70,22.47,-8.49,4.13,2.80,3:39:54,34.219360N,-112.948669W,1116.70,0.03,16
18505656,33.53,1060.68,70,22.43,-8.51,4.14,2.79,3:39:55,34.219360N,-112.948669W,1116.70,0.00,16
18506657,33.53,1060.78,70,22.45,-8.47,4.11,2.80,3:39:56,34.219360N,-112.948669W,1116.70,0.02,16
18507658,33.54,1060.87,72,22.47,-8.48,4.11,2.78,3:39:57,34.219360N,-112.948669W,1116.70,0.01,16
18508659,33.56,1061.05,72,22.48,-8.48,4.11,2.79,3:39:58,34.219360N,-112.948669W,1116.70,0.03,16
18509660,33.56,1061.14,70,22.45,-8.45,4.10,2.79,3:39:59,34.219360N,-112.948669W,1116.70,0.00,16
18510661,33.56,1061.05,70,22.48,-8.49,4.14,2.80,3:40:0,34.219360N,-112.948669W,1116.70,0.01,16
18511662,33.56,1061.05,70,22.44,-8.51,4.11,2.79,3:40:1,34.219360N,-112.948669W,1116.70,0.02,16
18512663,33.56,1061.14,72,22.46,-8.50,4.13,2.78,3:40:2,34.219360N,-112.948669W,1116.70,0.02,16
18513664,33.56,1060.87,70,22.49,-8.49,4.15,2.79,3:40:3,34.219360N,-112.948669W,1116.70,0.02,16
18514665,33.55,1060.78,69,22.45,-8.50,4.12,2.79,3:40:4,34.219360N,-112.948669W,1116.70,0.02,16
18515666,33.56,1060.50,69,22.49,-8.49,4.13,2.79,3:40:5,34.219360N,-112.948669W,1116.70,0.03,16
18516667,33.58,1060.41,68,22.46,-8.49,4.13,2.80,3:40:6,34.219360N,-112.948669W,1116.70,0.01,16
18517668,33.60,1060.22,70,22.49,-8.47,4.14,2.81,3:40:7,34.219360N,-112.948669W,1116.70,0.02,16
18518669,33.62,1060.13,68,22.46,-8.48,4.16,2.79,3:40:8,34.219360N,-112.948669W,1116.70,0.01,16
18519670,33.64,1060.04,67,22.44,-8.60,4.06,2.80,3:40:9,34.219360N,-112.948669W,1116.70,0.05,16
18520671,33.64,1059.94,68,22.50,-8.54,4.08,2.78,3:40:10,34.219360N,-112.948669W,1116.70,0.02,16
18521672,33.65,1059.85,68,22.47,-8.60,4.08,2.81,3:40:11,34.219360N,-112.948669W,1116.70,0.01,16
18522673,33.65,1059.94,68,22.45,-8.61,4.09,2.83,3:40:12,34.219360N,-112.948669W,1116.70,0.01,16
18523674,33.65,1059.94,69,22.48,-8.50,4.18,2.78,3:40:13,34.219360N,-112.948669W,1116.70,0.01,16
18524675,33.66,1059.94,69,22.48,-8.42,4.16,2.80,3:40:14,34.219360N,-112.948669W,1116.70,0.03,16
18525676,33.68,1060.04,67,22.54,-8.44,4.14,2.77,3:40:15,34.219360N,-112.948669W,1116.70,0.02,16
18526677,33.67,1059.94,69,22.47,-8.38,4.19,2.79,3:40:16,34.219360N,-112.948669W,1116.70,0.01,16
18527678,33.68,1059.85,69,22.46,-8.50,4.13,2.81,3:40:17,34.219360N,-112.948669W,1116.70,0.02,16
18528679,33.69,1059.76,67,22.45,-8.50,4.12,2.79,3:40:18,34.219360N,-112.948669W,1116.70,0.01,16
18529680,33.71,1059.85,68,22.48,-8.46,4.18,2.75,3:40:19,34.219360N,-112.948669W,1116.70,0.02,16
18530681,33.73,1059.76,69,22.49,-8.48,4.05,2.79,3:40:20,34.219360N,-112.948669W,1116.70,0.03,16
18531682,33.73,1059.76,67,22.46,-8.46,4.16,2.80,3:40:21,34.219360N,-112.948669W,1116.70,0.01,16
18532683,33.74,1059.76,63,22.53,-8.56,4.13,2.78,3:40:22,34.219360N,-112.948669W,1116.70,0.03,16
18533684,33.73,1059.76,69,22.51,-8.48,4.07,2.77,3:40:23,34.219360N,-112.948669W,1116.70,0.05,16
18534685,33.73,1059.76,68,22.50,-8.48,4.18,2.82,3:40:24,34.219360N,-112.948669W,1116.70,0.09,16
18535686,33.73,1059.76,68,22.47,-8.47,4.16,2.77,3:40:25,34.219360N,-112.948669W,1116.80,0.06,16
18536687,33.74,1059.67,70,22.52,-8.50,4.12,2.80,3:40:26,34.219360N,-112.948669W,1116.80,0.07,16
18537688,33.74,1059.85,70,22.48,-8.52,4.12,2.79,3:40:27,34.219360N,-112.948669W,1116.70,0.02,16
18538689,33.77,1059.85,69,22.49,-8.46,4.12,2.79,3:40:28,34.219360N,-112.948669W,1116.70,0.03,16
18539690,33.79,1059.94,70,22.49,-8.50,4.15,2.79,3:40:29,34.219360N,-112.948669W,1116.80,0.01,16
18540691,33.81,1060.04,70,22.50,-8.48,4.11,2.81,3:40:30,34.219360N,-112.948669W,1116.70,0.01,16
18541692,33.83,1059.94,70,22.46,-8.51,4.11,2.78,3:40:31,34.219360N,-112.948669W,1116.80,0.02,16
18542693,33.85,1059.85,69,22.51,-8.48,4.11,2.80,3:40:32,34.219360N,-112.948669W,1116.80,0.03,16
18543694,33.85,1059.76,69,22.48,-8.53,4.12,2.79,3:40:33,34.219360N,-112.948669W,1116.80,0.01,16
18544695,33.87,1059.67,69,22.49,-8.52,4.16,2.79,3:40:34,34.219360N,-112.948669W,1116.80,0.01,16
18545696,33.88,1059.67,65,22.48,-8.45,4.14,2.78,3:40:35,34.219360N,-112.948669W,1116.80,0.01,16
18546697,33.89,1059.58,65,22.49,-8.50,4.25,2.77,3:40:36,34.219360N,-112.948669W,1116.80,0.02,16
18547698,33.91,1059.67,67,22.52,-8.44,4.23,2.81,3:40:37,34.219360N,-112.948669W,1116.80,0.03,16
18548699,33.92,1059.67,67,22.50,-8.40,4.22,2.78,3:40:38,34.219360N,-112.948669W,1116.80,0.02,16
18549700,33.93,1059.58,64,22.53,-8.35,4.16,2.78,3:40:39,34.219360N,-112.948669W,1116.80,0.02,16
18550701,33.93,1059.67,62,22.50,-8.50,4.21,2.80,3:40:40,34.219360N,-112.948669W,1116.80,0.01,16
18551702,33.93,1059.67,64,22.55,-8.55,4.14,2.79,3:40:41,34.219360N,-112.948669W,1116.80,0.00,16
18552703,33.93,1059.76,68,22.54,-8.51,4.16,2.79,3:40:42,34.219360N,-112.948669W,1116.80,0.01,16
18553704,33.92,1059.67,68,22.54,-8.51,4.11,2.79,3:40:43,34.219360N,-112.948669W,1116.80,0.01,16
18554705,33.93,1059.67,67,22.54,-8.44,4.14,2.78,3:40:44,34.219360N,-112.948669W,1116.80,0.01,16
18555706,33.94,1059.67,68,22.50,-8.48,4.13,2.79,3:40:45,34.219360N,-112.948669W,1116.80,0.02,16
18556707,33.95,1059.67,69,22.55,-8.48,4.13,2.79,3:40:46,34.219360N,-112.948669W,1116.80,0.01,16
18557708,33.96,1059.76,68,22.54,-8.48,4.13,2.79,3:40:47,34.219360N,-112.948669W,1116.80,0.02,16
18558709,33.99,1059.67,68,22.50,-8.46,4.13,2.78,3:40:48,34.219360N,-112.948669W,1116.80,0.01,16
18559710,34.00,1059.67,67,22.48,-8.49,4.19,2.78,3:40:49,34.219360N,-112.948669W,1116.80,0.01,16
18560711,34.02,1059.76,55,22.53,-8.46,4.25,2.74,3:40:50,34.219360N,-112.948669W,1116.80,0.02,16
18561712,34.03,1059.76,65,22.50,-8.55,4.07,2.77,3:40:51,34.219360N,-112.948669W,1116.80,0.02,16
18562713,34.00,1059.76,67,22.50,-8.57,4.30,2.76,3:40:52,34.219360N,-112.948669W,1116.80,0.03,15
18563714,33.98,1059.76,59,22.51,-8.45,4.25,2.75,3:40:53,34.219360N,-112.948669W,1116.80,0.02,15
18564715,33.97,1059.85,67,22.50,-8.47,4.22,2.79,3:40:54,34.219360N,-112.948669W,1116.80,0.01,15
18565716,33.96,1059.85,60,22.53,-8.40,4.15,2.75,3:40:55,34.219360N,-112.948669W,1116.80,0.00,15
18566717,33.95,1059.85,67,22.47,-8.52,4.07,2.83,3:40:56,34.219360N,-112.948669W,1116.80,0.01,15
18567718,33.92,1059.85,68,22.55,-8.51,4.15,2.69,3:40:57,34.219360N,-112.948669W,1116.80,0.01,15
18568719,33.90,1059.85,65,22.45,-8.57,4.10,2.79,3:40:58,34.219360N,-112.948669W,1116.80,0.02,15
18569720,33.88,1059.85,68,22.54,-8.45,4.11,2.75,3:40:59,34.219360N,-112.948669W,1116.80,0.02,16
18570721,33.86,1059.76,64,22.51,-8.61,4.01,2.79,3:41:0,34.219360N,-112.948669W,1116.80,0.01,16
18571722,33.85,1059.76,67,22.55,-8.54,4.09,2.73,3:41:1,34.219360N,-112.948669W,1116.80,0.01,16
18572723,33.84,1059.76,65,22.55,-8.42,4.14,2.78,3:41:2,34.219360N,-112.948669W,1116.80,0.01,16
18573724,33.82,1059.76,69,22.56,-8.47,4.18,2.77,3:41:3,34.219360N,-112.948669W,1116.80,0.02,16
18574725,33.81,1060.04,68,22.53,-8.48,4.14,2.80,3:41:4,34.219360N,-112.948669W,1116.80,0.01,16
18575726,33.81,1060.13,69,22.54,-8.45,4.15,2.79,3:41:5,34.219360N,-112.948669W,1116.80,0.00,15
18576727,33.82,1060.41,68,22.56,-8.49,4.11,2.79,3:41:6,34.219360N,-112.948669W,1116.80,0.01,16
18577728,33.82,1060.22,64,22.55,-8.47,4.13,2.79,3:41:7,34.219360N,-112.948669W,1116.80,0.02,16
18578729,33.84,1060.13,58,22.55,-8.53,4.12,2.74,3:41:8,34.219360N,-112.948669W,1116.80,0.02,16
18579730,33.84,1060.04,67,22.54,-8.51,4.06,2.79,3:41:9,34.219360N,-112.948669W,1116.80,0.02,16
18580731,33.81,1059.94,68,22.50,-8.57,4.17,2.79,3:41:10,34.219360N,-112.948669W,1116.80,0.03,16
18581732,33.80,1059.94,64,22.54,-8.51,4.18,2.79,3:41:11,34.219360N,-112.948669W,1116.80,0.01,16
18582733,33.79,1059.94,59,22.55,-8.61,4.14,2.77,3:41:12,34.219360N,-112.948669W,1116.80,0.01,16
18583734,33.78,1059.94,64,22.50,-8.57,4.09,2.77,3:41:13,34.219360N,-112.948669W,1116.80,0.01,15
18584735,33.75,1059.85,69,22.55,-8.60,4.00,2.79,3:41:14,34.219360N,-112.948669W,1116.80,0.01,15
18585736,33.74,1059.85,67,22.57,-8.60,4.10,2.79,3:41:15,34.219360N,-112.948669W,1116.80,0.02,16
18586737,33.74,1059.85,64,22.54,-8.47,4.21,2.78,3:41:16,34.219360N,-112.948669W,1116.80,0.01,15
18587738,33.75,1059.94,64,22.54,-8.33,4.24,2.75,3:41:17,34.219360N,-112.948669W,1116.80,0.01,15
18588739,33.74,1059.94,68,22.52,-8.43,4.25,2.80,3:41:18,34.219360N,-112.948669W,1116.80,0.02,15
18589740,33.73,1059.94,67,22.53,-8.43,4.20,2.79,3:41:19,34.219360N,-112.948669W,1116.80,0.01,16
18590741,33.73,1059.85,67,22.56,-8.44,4.16,2.76,3:41:20,34.219360N,-112.948669W,1116.80,0.02,16
18591742,33.73,1059.85,65,22.54,-8.48,4.14,2.79,3:41:21,34.219360N,-112.948669W,1116.80,0.00,16
18592743,33.71,1060.04,65,22.57,-8.50,4.13,2.80,3:41:22,34.219360N,-112.948669W,1116.70,0.01,16
18593744,33.70,1060.04,65,22.55,-8.62,4.10,2.78,3:41:23,34.219360N,-112.948669W,1116.70,0.01,16
18594745,33.69,1060.04,65,22.51,-8.46,4.09,2.78,3:41:24,34.219360N,-112.948669W,1116.70,0.02,16
18595746,33.69,1059.94,65,22.59,-8.38,4.18,2.79,3:41:25,34.219360N,-112.948669W,1116.70,0.01,16
18596747,33.69,1060.04,67,22.57,-8.50,4.13,2.82,3:41:26,34.219360N,-112.948669W,1116.70,0.01,16
18597748,33.69,1060.13,67,22.58,-8.52,4.11,2.79,3:41:27,34.219360N,-112.948669W,1116.70,0.01,16
18598749,33.69,1060.31,68,22.55,-8.53,4.07,2.81,3:41:28,34.219360N,-112.948669W,1116.70,0.01,16
18599750,33.70,1060.22,67,22.56,-8.52,4.11,2.79,3:41:29,34.219360N,-112.948669W,1116.70,0.02,16
18600751,33.70,1060.31,69,22.57,-8.48,4.08,2.79,3:41:30,34.219360N,-112.948669W,1116.70,0.01,16
18601752,33.71,1060.50,67,22.57,-8.48,4.11,2.80,3:41:31,34.219360N,-112.948669W,1116.70,0.00,16
18602753,33.73,1060.31,67,22.55,-8.49,4.17,2.79,3:41:32,34.219360N,-112.948669W,1116.70,0.02,16
18603754,33.75,1060.13,65,22.54,-8.48,4.13,2.83,3:41:33,34.219360N,-112.948669W,1116.70,0.02,16
18604755,33.77,1060.04,65,22.60,-8.53,4.12,2.78,3:41:34,34.219360N,-112.948669W,1116.70,0.03,16
18605756,33.79,1060.22,64,22.56,-8.53,4.12,2.79,3:41:35,34.219360N,-112.948669W,1116.70,0.02,16
18606757,33.81,1060.22,64,22.55,-8.55,4.12,2.78,3:41:36,34.219360N,-112.948669W,1116.70,0.02,16
18607758,33.82,1060.13,64,22.59,-8.63,4.16,2.77,3:41:37,34.219360N,-112.948669W,1116.70,0.03,16
18608759,33.81,1059.94,65,22.59,-8.51,4.19,2.80,3:41:38,34.219360N,-112.948669W,1116.70,0.03,16
18609760,33.79,1059.85,65,22.55,-8.75,4.08,2.80,3:41:39,34.219360N,-112.948669W,1116.70,0.01,16
18610761,33.77,1059.85,65,22.54,-8.59,4.02,2.80,3:41:40,34.219357N,-112.948669W,1116.70,0.01,16
18611762,33.75,1059.94,65,22.60,-8.46,4.09,2.78,3:41:41,34.219357N,-112.948669W,1116.70,0.01,16
18612763,33.74,1059.85,64,22.62,-8.52,4.16,2.81,3:41:42,34.219357N,-112.948669W,1116.70,0.01,16
18613764,33.72,1059.94,67,22.57,-8.56,4.13,2.82,3:41:43,34.219357N,-112.948669W,1116.70,0.01,16
18614765,33.71,1060.04,64,22.57,-8.54,4.10,2.79,3:41:44,34.219357N,-112.948669W,1116.70,0.02,16
18615766,33.72,1060.13,64,22.57,-8.49,4.10,2.79,3:41:45,34.219357N,-112.948669W,1116.70,0.01,16
18616767,33.73,1060.04,64,22.57,-8.39,4.12,2.80,3:41:46,34.219357N,-112.948669W,1116.70,0.01,16
18617768,33.74,1060.13,63,22.64,-8.43,4.15,2.80,3:41:47,34.219357N,-112.948669W,1116.70,0.00,16
18618769,33.74,1059.94,64,22.59,-8.52,4.21,2.81,3:41:48,34.219357N,-112.948669W,1116.70,0.03,16
