time_since_start,bme_temp,bme_alt,uv,ism_temp,acc_x,acc_y,acc_z,gps_time,latitude,longitude,gps_alt,speed,sats
1202368,24.03,403.37,39,29.66,-8.81,1.26,4.93,10:51:33,33.664631N,-114.007446W,483.30,0.06,18
1203369,24.07,407.78,29,29.65,-10.07,-0.28,-0.27,10:51:34,33.664631N,-114.007446W,483.30,0.40,18
1204370,24.09,410.99,28,29.64,-8.67,-2.62,-3.07,10:51:35,33.664631N,-114.007446W,483.30,0.24,18
1205371,24.10,413.24,26,29.68,-8.73,-2.80,-3.40,10:51:36,33.664631N,-114.007446W,483.20,0.33,18
1206372,24.11,414.97,25,29.65,-8.63,-2.66,-3.40,10:51:37,33.664631N,-114.007446W,483.20,0.08,18
1207373,24.11,416.27,26,29.64,-8.75,-2.82,-3.43,10:51:38,33.664631N,-114.007446W,483.20,0.08,18
1208374,24.11,417.31,26,29.68,-8.67,-2.71,-3.60,10:51:39,33.664631N,-114.007446W,483.20,0.18,18
1209375,24.12,417.92,26,29.66,-8.77,-2.63,-3.47,10:51:40,33.664635N,-114.007446W,483.20,0.09,18
1210376,24.12,418.44,26,29.68,-8.85,-2.59,-3.42,10:51:41,33.664635N,-114.007446W,483.20,0.15,18
1211377,24.12,418.79,28,29.69,-8.81,-2.68,-3.40,10:51:42,33.664635N,-114.007446W,483.20,0.06,18
1212378,24.12,419.05,29,29.68,-8.51,-1.54,-3.67,10:51:43,33.664635N,-114.007446W,483.20,0.01,18
1213379,24.11,419.22,26,29.66,-9.08,-0.95,-3.71,10:51:44,33.664635N,-114.007446W,483.20,0.01,18
1214380,24.11,419.31,30,29.71,-8.81,-3.22,-4.46,10:51:45,33.664635N,-114.007446W,483.20,0.03,18
1215381,24.13,419.65,28,29.68,-9.58,2.41,-0.41,10:51:46,33.664635N,-114.007446W,483.20,0.10,18
1216382,24.13,419.74,18,29.70,-9.44,1.59,-0.46,10:51:47,33.664635N,-114.007446W,483.30,0.41,18
1217383,24.14,420.00,40,29.69,-9.63,1.28,1.75,10:51:48,33.664635N,-114.007446W,483.40,0.31,18
1218384,24.14,420.17,34,29.70,-8.67,3.10,3.01,10:51:49,33.664635N,-114.007446W,483.40,0.18,18
1219385,24.15,420.26,34,29.69,-9.29,3.25,1.82,10:51:50,33.664635N,-114.007446W,483.40,0.13,18
1220386,24.16,420.35,33,29.68,-9.91,4.18,2.52,10:51:51,33.664635N,-114.007446W,483.40,0.05,18
1221387,24.17,420.35,31,29.70,-8.74,3.22,1.56,10:51:52,33.664635N,-114.007446W,483.30,0.05,18
1222388,24.17,420.43,30,29.67,-8.85,3.31,1.00,10:51:53,33.664635N,-114.007446W,483.30,0.05,18
1223389,24.18,420.43,30,29.68,-9.50,4.14,0.84,10:51:54,33.664635N,-114.007446W,483.20,0.03,18
1224390,24.19,420.52,31,29.69,-9.07,3.22,1.14,10:51:55,33.664635N,-114.007446W,483.20,0.01,18
1225391,24.20,420.52,33,29.73,-9.39,2.85,1.37,10:51:56,33.664635N,-114.007446W,483.20,0.18,18
1226392,24.20,420.43,35,29.68,-9.50,2.77,0.94,10:51:57,33.664635N,-114.007446W,483.10,0.17,18
1227393,24.21,420.26,36,29.72,-9.27,3.41,-0.16,10:51:58,33.664635N,-114.007446W,483.20,0.05,18
1228394,24.22,420.17,35,29.65,-9.39,3.15,0.01,10:51:59,33.664635N,-114.007446W,483.20,0.28,18
1229395,24.24,420.09,31,29.71,-9.21,2.99,0.27,10:52:0,33.664635N,-114.007446W,483.20,0.14,18
1230396,24.25,420.17,34,29.69,-9.61,2.66,-0.79,10:52:1,33.664635N,-114.007446W,483.20,0.16,18
1231397,24.26,420.17,28,29.70,-9.60,2.15,-1.60,10:52:2,33.664635N,-114.007446W,483.30,0.08,17
1232398,24.28,420.17,29,29.72,-10.18,1.51,-0.59,10:52:3,33.664635N,-114.007446W,483.30,0.16,18
1233399,24.28,420.09,29,29.69,-10.19,1.27,0.61,10:52:4,33.664635N,-114.007446W,483.30,0.20,18
1234400,24.28,420.17,31,29.68,-9.91,0.83,0.84,10:52:5,33.664635N,-114.007446W,483.30,0.16,18
1235401,24.29,420.00,33,29.74,-7.61,4.60,0.12,10:52:6,33.664635N,-114.007446W,483.30,0.15,18
1236402,24.30,419.91,31,29.74,-8.17,5.34,0.16,10:52:7,33.664639N,-114.007446W,483.40,0.21,18
1237403,24.30,419.91,34,29.71,-8.64,4.72,1.23,10:52:8,33.664639N,-114.007446W,483.40,0.10,18
1238404,24.29,419.83,36,29.75,-7.52,2.95,1.12,10:52:9,33.664639N,-114.007446W,483.40,0.17,18
1239405,24.27,419.74,34,29.73,-10.28,2.39,0.11,10:52:10,33.664639N,-114.007446W,483.30,0.31,18
1240406,24.25,419.48,35,29.72,-8.54,4.70,-0.15,10:52:11,33.664639N,-114.007446W,483.20,0.59,18
1241407,24.25,419.31,34,29.79,-8.53,4.71,-0.17,10:52:12,33.664639N,-114.007446W,483.10,0.24,18
1242408,24.24,419.13,36,29.77,-8.54,4.71,-0.17,10:52:13,33.664639N,-114.007446W,483.00,0.15,18
1243409,24.24,419.05,34,29.79,-8.53,4.71,-0.15,10:52:14,33.664642N,-114.007446W,483.10,0.14,18
1244410,24.23,418.96,35,29.79,-8.53,4.70,-0.17,10:52:15,33.664642N,-114.007446W,483.20,0.03,18
1245411,24.24,418.96,35,29.80,-8.53,4.70,-0.15,10:52:16,33.664642N,-114.007446W,483.10,0.36,18
1246412,24.24,418.96,35,29.79,-8.54,4.70,-0.16,10:52:17,33.664642N,-114.007446W,483.10,0.10,18
1247413,24.23,418.87,35,29.69,-8.54,4.71,-0.16,10:52:18,33.664642N,-114.007446W,483.10,0.03,18
1248414,24.21,418.96,35,29.75,-8.55,4.70,-0.16,10:52:19,33.664642N,-114.007446W,483.10,0.05,18
1249415,24.20,419.13,35,29.81,-8.54,4.71,-0.17,10:52:20,33.664642N,-114.007446W,483.20,0.10,18
1250416,24.19,419.13,35,29.76,-8.53,4.70,-0.16,10:52:21,33.664642N,-114.007446W,483.10,0.13,18
1251417,24.19,419.13,35,29.82,-8.53,4.70,-0.16,10:52:22,33.664642N,-114.007446W,483.20,0.07,18
1252418,24.19,419.13,35,29.80,-8.53,4.71,-0.16,10:52:23,33.664642N,-114.007446W,483.20,0.06,18
1253419,24.20,419.13,35,29.82,-8.53,4.70,-0.17,10:52:24,33.664642N,-114.007446W,483.20,0.02,18
1254420,24.22,419.13,35,29.78,-8.53,4.71,-0.16,10:52:25,33.664642N,-114.007446W,483.20,0.09,18
1255421,24.23,419.13,35,29.80,-8.54,4.70,-0.16,10:52:26,33.664642N,-114.007446W,483.20,0.09,18
1256422,24.24,419.13,35,29.84,-8.53,4.70,-0.16,10:52:27,33.664642N,-114.007446W,483.20,0.15,18
1257423,24.24,419.13,35,29.85,-8.53,4.70,-0.16,10:52:28,33.664642N,-114.007446W,483.20,0.18,18
1258424,24.25,419.13,35,29.85,-8.54,4.71,-0.16,10:52:29,33.664642N,-114.007446W,483.20,0.02,17
1259425,24.26,419.13,35,29.86,-8.54,4.70,-0.17,10:52:30,33.664642N,-114.007446W,483.20,0.03,17
1260426,24.28,419.13,35,29.81,-8.54,4.70,-0.16,10:52:31,33.664642N,-114.007446W,483.20,0.15,17
1261427,24.28,419.13,35,29.85,-8.54,4.71,-0.16,10:52:32,33.664642N,-114.007446W,483.30,0.22,17
1262428,24.30,419.05,35,29.86,-8.53,4.70,-0.16,10:52:33,33.664642N,-114.007446W,483.30,0.13,17
1263429,24.32,419.05,34,29.85,-8.54,4.69,-0.15,10:52:34,33.664642N,-114.007446W,483.20,0.10,17
1264430,24.34,419.05,35,29.87,-8.53,4.70,-0.16,10:52:35,33.664642N,-114.007446W,483.20,0.08,17
1265431,24.36,419.05,35,29.78,-8.53,4.70,-0.16,10:52:36,33.664642N,-114.007446W,483.20,0.10,17
1266432,24.38,419.05,35,29.85,-8.54,4.71,-0.16,10:52:37,33.664642N,-114.007446W,483.20,0.08,17
1267433,24.39,419.05,35,29.84,-8.54,4.70,-0.15,10:52:38,33.664642N,-114.007446W,483.20,0.02,17
1268434,24.40,419.05,34,29.84,-8.53,4.70,-0.15,10:52:39,33.664642N,-114.007446W,483.20,0.05,17
1269435,24.41,419.05,35,29.82,-8.52,4.70,-0.17,10:52:40,33.664642N,-114.007446W,483.20,0.02,17
1270436,24.40,419.13,34,29.90,-8.54,4.70,-0.17,10:52:41,33.664642N,-114.007446W,483.20,0.05,17
1271437,24.40,419.13,35,29.87,-8.53,4.70,-0.16,10:52:42,33.664642N,-114.007446W,483.20,0.12,17
1272438,24.40,419.05,35,29.87,-8.53,4.70,-0.16,10:52:43,33.664642N,-114.007446W,483.20,0.06,16
1273439,24.41,419.13,35,29.87,-8.53,4.70,-0.16,10:52:44,33.664642N,-114.007446W,483.20,0.07,16
1274440,24.42,419.13,34,29.86,-8.54,4.70,-0.16,10:52:45,33.664642N,-114.007446W,483.20,0.05,17
1275441,24.44,419.13,35,29.85,-8.54,4.70,-0.15,10:52:46,33.664642N,-114.007446W,483.20,0.03,17
1276442,24.45,419.13,35,29.89,-8.53,4.70,-0.16,10:52:47,33.664642N,-114.007446W,483.20,0.02,17
1277443,24.47,419.22,35,29.87,-8.54,4.69,-0.16,10:52:48,33.664642N,-114.007446W,483.20,0.06,17
1278444,24.49,419.13,35,29.87,-8.54,4.69,-0.16,10:52:49,33.664642N,-114.007446W,483.20,0.06,17
1279445,24.51,419.13,34,29.88,-8.53,4.71,-0.16,10:52:50,33.664642N,-114.007446W,483.20,0.01,17
1280446,24.53,419.13,35,29.86,-8.54,4.70,-0.16,10:52:51,33.664642N,-114.007446W,483.20,0.02,17
1281447,24.55,419.05,35,29.87,-8.54,4.70,-0.16,10:52:52,33.664642N,-114.007446W,483.20,0.01,17
1282448,24.57,419.05,35,29.91,-8.53,4.70,-0.17,10:52:53,33.664642N,-114.007446W,483.20,0.01,17
1283449,24.58,418.96,35,29.87,-8.54,4.71,-0.16,10:52:54,33.664642N,-114.007446W,483.20,0.03,17
1284450,24.60,418.96,35,29.89,-8.54,4.71,-0.16,10:52:55,33.664642N,-114.007446W,483.20,0.01,17
1285451,24.63,418.87,36,29.88,-8.54,4.70,-0.16,10:52:56,33.664642N,-114.007446W,483.20,0.01,18
1286452,24.65,418.96,35,29.91,-8.53,4.71,-0.16,10:52:57,33.664642N,-114.007446W,483.20,0.00,17
1287453,24.67,418.96,35,29.89,-8.53,4.70,-0.17,10:52:58,33.664642N,-114.007446W,483.20,0.08,18
1288454,24.68,418.87,35,29.94,-8.54,4.70,-0.16,10:52:59,33.664642N,-114.007446W,483.20,0.17,18
1289455,24.70,418.96,35,29.91,-8.53,4.69,-0.17,10:53:0,33.664642N,-114.007446W,483.30,0.12,18
1290456,24.71,418.96,35,29.90,-8.53,4.70,-0.16,10:53:1,33.664642N,-114.007446W,483.20,0.10,18
1291457,24.73,418.87,35,29.91,-8.54,4.70,-0.16,10:53:2,33.664642N,-114.007446W,483.20,0.09,18
1292458,24.75,418.96,35,29.90,-8.53,4.70,-0.17,10:53:3,33.664639N,-114.007446W,483.30,0.21,18
1293459,24.77,418.87,35,29.91,-8.53,4.72,-0.18,10:53:4,33.664639N,-114.007446W,483.30,0.06,18
1294460,24.78,418.96,35,29.90,-8.53,4.70,-0.16,10:53:5,33.664639N,-114.007446W,483.20,0.10,18
1295461,24.79,418.87,35,29.92,-8.53,4.70,-0.16,10:53:6,33.664639N,-114.007446W,483.30,0.06,18
1296462,24.81,418.87,35,29.89,-8.54,4.69,-0.15,10:53:7,33.664639N,-114.007446W,483.20,0.09,18
1297463,24.83,418.96,35,29.94,-8.54,4.70,-0.16,10:53:8,33.664639N,-114.007446W,483.30,0.09,18
1298464,24.85,418.87,35,29.94,-8.53,4.70,-0.15,10:53:9,33.664639N,-114.007446W,483.20,0.08,18
1299465,24.86,418.87,35,29.94,-8.54,4.71,-0.16,10:53:10,33.664639N,-114.007446W,483.30,0.08,18
1300466,24.88,418.87,35,29.94,-8.54,4.70,-0.15,10:53:11,33.664639N,-114.007446W,483.30,0.06,18
1301467,24.89,418.87,35,29.96,-8.53,4.70,-0.16,10:53:12,33.664639N,-114.007446W,483.30,0.08,18
1302468,24.90,418.87,34,29.95,-8.54,4.70,-0.15,10:53:13,33.664639N,-114.007446W,483.30,0.07,18
1303469,24.91,418.79,34,29.95,-8.53,4.71,-0.16,10:53:14,33.664639N,-114.007446W,483.20,0.06,18
1304470,24.93,418.87,34,29.96,-8.53,4.70,-0.16,10:53:15,33.664639N,-114.007446W,483.30,0.08,18
1305471,24.95,418.96,34,29.93,-8.54,4.70,-0.17,10:53:16,33.664639N,-114.007446W,483.20,0.26,18
1306472,24.97,418.96,34,29.97,-8.53,4.70,-0.17,10:53:17,33.664639N,-114.007446W,483.30,0.17,18
1307473,24.99,418.96,34,29.95,-8.54,4.71,-0.16,10:53:18,33.664639N,-114.007446W,483.30,0.07,18
1308474,25.01,418.87,34,29.93,-8.54,4.71,-0.17,10:53:19,33.664639N,-114.007446W,483.30,0.06,18
1309475,25.03,418.87,34,29.94,-8.54,4.70,-0.17,10:53:20,33.664639N,-114.007446W,483.30,0.05,18
1310476,25.05,418.87,34,29.97,-8.54,4.70,-0.16,10:53:21,33.664639N,-114.007446W,483.30,0.15,18
1311477,25.06,418.70,35,29.93,-8.53,4.70,-0.15,10:53:22,33.664639N,-114.007446W,483.30,0.09,18
1312478,25.08,418.79,35,29.93,-8.54,4.71,-0.15,10:53:23,33.664639N,-114.007446W,483.30,0.05,18
1313479,25.06,418.87,34,29.97,-8.54,4.70,-0.16,10:53:24,33.664639N,-114.007446W,483.30,0.05,18
1314480,25.05,418.96,34,29.96,-8.53,4.71,-0.15,10:53:25,33.664639N,-114.007446W,483.30,0.06,18
1315481,25.05,418.96,34,29.98,-8.54,4.69,-0.16,10:53:26,33.664639N,-114.007446W,483.30,0.06,18
1316482,25.05,418.96,34,29.97,-8.54,4.70,-0.16,10:53:27,33.664639N,-114.007446W,483.30,0.07,18
1317483,25.06,418.96,34,30.05,-8.52,4.70,-0.16,10:53:28,33.664639N,-114.007446W,483.40,0.09,18
1318484,25.07,418.87,35,30.00,-8.53,4.69,-0.17,10:53:29,33.664639N,-114.007446W,483.40,0.09,18
1319485,25.08,418.87,35,29.97,-8.55,4.70,-0.16,10:53:30,33.664639N,-114.007446W,483.40,0.05,18
1320486,25.07,418.87,35,29.96,-8.54,4.69,-0.16,10:53:31,33.664639N,-114.007446W,483.40,0.15,18
1321487,25.05,418.96,35,30.04,-8.52,4.70,-0.17,10:53:32,33.664639N,-114.007446W,483.50,0.15,18
1322488,25.04,419.05,35,29.99,-8.53,4.71,-0.17,10:53:33,33.664639N,-114.007446W,483.50,0.07,18
1323489,25.04,418.87,35,29.98,-8.54,4.71,-0.15,10:53:34,33.664639N,-114.007446W,483.50,0.05,18
1324490,25.02,418.70,34,30.04,-8.57,4.69,-0.15,10:53:35,33.664639N,-114.007446W,483.40,0.14,18
1325491,25.01,418.70,35,30.05,-8.51,4.72,-0.17,10:53:36,33.664639N,-114.007446W,483.40,0.06,18
1326492,24.99,418.70,35,29.97,-8.53,4.71,-0.17,10:53:37,33.664639N,-114.007446W,483.40,0.07,17
1327493,24.96,418.70,35,29.98,-8.56,4.69,-0.15,10:53:38,33.664635N,-114.007446W,483.40,0.08,17
1328494,24.94,418.70,35,30.02,-8.53,4.70,-0.16,10:53:39,33.664635N,-114.007446W,483.30,0.08,17
1329495,24.94,418.70,35,30.04,-8.55,4.70,-0.15,10:53:40,33.664635N,-114.007446W,483.30,0.08,17
1330496,24.95,418.79,35,30.05,-8.53,4.70,-0.16,10:53:41,33.664635N,-114.007439W,483.30,0.09,17
1331497,24.96,418.70,35,30.06,-8.53,4.70,-0.16,10:53:42,33.664635N,-114.007439W,483.30,0.10,17
1332498,24.97,418.79,35,30.07,-8.53,4.70,-0.15,10:53:43,33.664635N,-114.007439W,483.30,0.09,17
1333499,24.98,418.79,35,30.01,-8.52,4.70,-0.17,10:53:44,33.664635N,-114.007439W,483.30,0.09,18
1334500,24.98,418.87,35,30.05,-8.55,4.69,-0.16,10:53:45,33.664635N,-114.007439W,483.20,0.07,18
1335501,24.98,418.87,35,30.04,-8.53,4.70,-0.16,10:53:46,33.664635N,-114.007439W,483.20,0.07,18
1336502,24.98,418.79,35,30.06,-8.53,4.70,-0.16,10:53:47,33.664635N,-114.007439W,483.20,0.01,18
1337503,24.99,418.79,34,30.06,-8.54,4.70,-0.16,10:53:48,33.664635N,-114.007439W,483.30,0.08,18
1338504,24.98,418.87,34,30.06,-8.53,4.70,-0.16,10:53:49,33.664635N,-114.007439W,483.30,0.08,18
1339505,24.96,418.87,34,30.08,-8.53,4.69,-0.16,10:53:50,33.664635N,-114.007439W,483.30,0.07,18
1340506,24.93,418.96,34,30.02,-8.55,4.70,-0.16,10:53:51,33.664635N,-114.007439W,483.30,0.06,18
1341507,24.91,418.96,35,30.12,-8.54,4.70,-0.16,10:53:52,33.664635N,-114.007439W,483.30,0.07,18
1342508,24.90,418.96,35,30.06,-8.53,4.70,-0.16,10:53:53,33.664635N,-114.007439W,483.30,0.14,18
1343509,24.90,418.96,34,30.07,-8.54,4.71,-0.16,10:53:54,33.664635N,-114.007439W,483.30,0.06,18
1344510,24.90,418.96,35,30.10,-8.54,4.70,-0.15,10:53:55,33.664635N,-114.007439W,483.40,0.14,18
1345511,24.89,419.05,35,30.03,-8.54,4.70,-0.16,10:53:56,33.664635N,-114.007439W,483.40,0.08,18
1346512,24.87,419.05,34,30.09,-8.53,4.71,-0.15,10:53:57,33.664635N,-114.007439W,483.30,0.14,18
1347513,24.87,419.05,35,30.11,-8.54,4.70,-0.16,10:53:58,33.664635N,-114.007439W,483.40,0.09,18
1348514,24.87,419.13,34,30.10,-8.53,4.70,-0.17,10:53:59,33.664635N,-114.007439W,483.40,0.09,18
1349515,24.86,419.13,34,30.07,-8.56,4.70,-0.14,10:54:0,33.664635N,-114.007439W,483.40,0.06,18
1350516,24.85,419.13,35,30.12,-8.52,4.70,-0.16,10:54:1,33.664631N,-114.007439W,483.30,0.14,18
1351517,24.85,419.13,35,30.08,-8.53,4.70,-0.16,10:54:2,33.664635N,-114.007439W,483.40,0.20,18
1352518,24.85,418.96,35,30.13,-8.52,4.70,-0.17,10:54:3,33.664631N,-114.007439W,483.30,0.10,18
1353519,24.87,419.05,35,30.09,-8.52,4.71,-0.17,10:54:4,33.664631N,-114.007439W,483.30,0.07,18
1354520,24.87,418.96,34,30.11,-8.53,4.71,-0.16,10:54:5,33.664631N,-114.007439W,483.30,0.13,18
1355521,24.86,418.96,34,30.09,-8.52,4.71,-0.17,10:54:6,33.664631N,-114.007439W,483.30,0.10,18
1356522,24.84,419.13,35,30.12,-8.54,4.70,-0.16,10:54:7,33.664631N,-114.007439W,483.20,0.07,18
1357523,24.84,419.13,35,30.11,-8.53,4.71,-0.16,10:54:8,33.664631N,-114.007439W,483.20,0.06,18
1358524,24.84,419.05,34,30.16,-8.52,4.70,-0.17,10:54:9,33.664631N,-114.007439W,483.20,0.06,18
1359525,24.85,419.13,35,30.16,-8.54,4.69,-0.16,10:54:10,33.664631N,-114.007439W,483.20,0.18,18
1360526,24.86,419.13,35,30.12,-8.55,4.70,-0.16,10:54:11,33.664631N,-114.007439W,483.20,0.09,18
1361527,24.87,419.05,35,30.08,-8.53,4.70,-0.15,10:54:12,33.664631N,-114.007439W,483.20,0.09,18
1362528,24.88,419.13,34,30.12,-8.54,4.70,-0.17,10:54:13,33.664631N,-114.007439W,483.30,0.07,18
1363529,24.89,419.13,35,30.14,-8.54,4.69,-0.16,10:54:14,33.664631N,-114.007439W,483.30,0.06,18
1364530,24.90,419.13,34,30.15,-8.54,4.70,-0.15,10:54:15,33.664631N,-114.007439W,483.40,0.06,18
1365531,24.89,419.13,35,30.14,-8.53,4.70,-0.16,10:54:16,33.664631N,-114.007439W,483.40,0.23,18
1366532,24.89,419.05,34,30.12,-8.52,4.71,-0.17,10:54:17,33.664635N,-114.007439W,483.50,0.14,18
1367533,24.88,419.05,35,30.14,-8.54,4.70,-0.16,10:54:18,33.664635N,-114.007439W,483.60,0.07,18
1368534,24.88,418.96,34,30.13,-8.53,4.71,-0.16,10:54:19,33.664635N,-114.007439W,483.50,0.06,18
1369535,24.88,418.96,35,30.16,-8.54,4.70,-0.16,10:54:20,33.664635N,-114.007439W,483.50,0.10,18
1370536,24.87,418.96,35,30.17,-8.53,4.70,-0.16,10:54:21,33.664635N,-114.007439W,483.50,0.03,18
1371537,24.88,418.96,35,30.15,-8.53,4.71,-0.16,10:54:22,33.664635N,-114.007439W,483.50,0.06,18
1372538,24.88,418.96,36,30.16,-8.55,4.70,-0.17,10:54:23,33.664635N,-114.007439W,483.50,0.02,18
1373539,24.89,418.96,35,30.15,-8.54,4.71,-0.15,10:54:24,33.664635N,-114.007439W,483.50,0.10,18
1374540,24.89,419.05,35,30.16,-8.52,4.70,-0.16,10:54:25,33.664635N,-114.007439W,483.50,0.06,18
1375541,24.89,419.05,35,30.19,-8.53,4.70,-0.18,10:54:26,33.664635N,-114.007439W,483.50,0.06,18
1376542,24.88,418.96,35,30.14,-8.55,4.71,-0.16,10:54:27,33.664635N,-114.007439W,483.50,0.10,18
1377543,24.88,418.96,35,30.16,-8.54,4.70,-0.16,10:54:28,33.664635N,-114.007439W,483.50,0.06,18
1378544,24.88,418.96,35,30.16,-8.54,4.70,-0.16,10:54:29,33.664635N,-114.007439W,483.50,0.06,18
1379545,24.88,418.96,35,30.16,-8.54,4.70,-0.16,10:54:30,33.664635N,-114.007439W,483.50,0.16,18
1380546,24.90,418.96,36,30.17,-8.53,4.71,-0.17,10:54:31,33.664635N,-114.007439W,483.50,0.15,18
1381547,24.92,419.05,35,30.16,-8.55,4.71,-0.15,10:54:32,33.664635N,-114.007439W,483.50,0.21,18
1382548,24.94,419.05,35,30.16,-8.54,4.70,-0.17,10:54:33,33.664635N,-114.007439W,483.40,0.18,18
1383549,24.95,419.05,35,30.17,-8.54,4.70,-0.16,10:54:34,33.664635N,-114.007439W,483.30,0.16,18
1384550,24.96,419.05,36,30.16,-8.55,4.70,-0.16,10:54:35,33.664635N,-114.007439W,483.20,0.14,18
1385551,24.98,419.05,35,30.19,-8.54,4.70,-0.17,10:54:36,33.664635N,-114.007439W,483.20,0.12,18
1386552,24.98,419.05,36,30.20,-8.54,4.70,-0.16,10:54:37,33.664635N,-114.007439W,483.10,0.06,18
1387553,24.99,419.13,35,30.18,-8.53,4.69,-0.16,10:54:38,33.664635N,-114.007439W,483.10,0.17,18
1388554,25.00,419.13,36,30.16,-8.55,4.71,-0.16,10:54:39,33.664635N,-114.007439W,483.10,0.06,18
1389555,25.01,419.22,35,30.18,-8.54,4.69,-0.15,10:54:40,33.664635N,-114.007439W,483.10,0.13,18
1390556,25.03,419.13,35,30.20,-8.54,4.69,-0.15,10:54:41,33.664635N,-114.007439W,483.10,0.09,18
1391557,25.04,419.22,36,30.17,-8.54,4.71,-0.16,10:54:42,33.664631N,-114.007439W,483.10,0.08,18
1392558,25.04,419.22,35,30.18,-8.51,4.71,-0.18,10:54:43,33.664631N,-114.007439W,483.10,0.05,18
1393559,25.04,419.13,36,30.20,-8.70,4.58,-0.06,10:54:44,33.664631N,-114.007439W,483.10,0.18,18
1394560,25.03,419.13,36,30.18,-8.57,4.68,-0.11,10:54:45,33.664631N,-114.007439W,483.10,0.15,18
1395561,25.03,419.13,35,30.21,-8.57,4.69,-0.13,10:54:46,33.664631N,-114.007439W,483.00,0.13,18
1396562,25.03,419.05,36,30.23,-8.50,4.71,-0.17,10:54:47,33.664631N,-114.007439W,483.00,0.08,17
1397563,25.04,419.13,34,30.25,-8.55,4.69,-0.15,10:54:48,33.664631N,-114.007439W,483.10,0.03,17
1398564,25.04,419.13,36,30.23,-8.52,4.69,-0.15,10:54:49,33.664631N,-114.007439W,483.00,0.08,18
1399565,25.04,419.22,36,30.22,-8.53,4.70,-0.15,10:54:50,33.664631N,-114.007439W,483.00,0.05,18
1400566,25.04,419.22,35,30.18,-8.54,4.69,-0.15,10:54:51,33.664631N,-114.007439W,482.90,0.02,17
1401567,25.05,419.13,36,30.22,-8.54,4.70,-0.15,10:54:52,33.664631N,-114.007439W,482.90,0.01,18
1402568,25.06,419.22,36,30.18,-8.53,4.70,-0.15,10:54:53,33.664631N,-114.007439W,482.80,0.15,18
1403569,25.05,419.22,36,30.20,-8.54,4.69,-0.15,10:54:54,33.664631N,-114.007439W,482.80,0.18,18
1404570,25.05,419.22,38,30.25,-8.53,4.70,-0.15,10:54:55,33.664631N,-114.007439W,482.70,0.24,18
1405571,25.04,419.22,36,30.24,-8.54,4.70,-0.15,10:54:56,33.664631N,-114.007439W,482.70,0.14,18
1406572,25.05,419.22,36,30.26,-8.54,4.69,-0.16,10:54:57,33.664631N,-114.007439W,482.60,0.10,18
1407573,25.04,419.22,36,30.25,-8.54,4.69,-0.15,10:54:58,33.664631N,-114.007439W,482.60,0.14,18
1408574,25.02,419.22,36,30.24,-8.53,4.69,-0.16,10:54:59,33.664631N,-114.007439W,482.50,0.15,18
1409575,25.02,419.13,36,30.28,-8.57,4.68,-0.14,10:55:0,33.664631N,-114.007439W,482.50,0.13,18
1410576,25.02,419.13,36,30.22,-8.57,4.67,-0.11,10:55:1,33.664631N,-114.007439W,482.50,0.14,18
1411577,25.03,419.13,36,30.28,-8.54,4.70,-0.15,10:55:2,33.664631N,-114.007439W,482.50,0.09,18
1412578,25.04,419.13,36,30.26,-8.53,4.70,-0.16,10:55:3,33.664631N,-114.007439W,482.50,0.06,18
1413579,25.05,419.05,35,30.28,-8.55,4.69,-0.14,10:55:4,33.664631N,-114.007439W,482.40,0.05,17
1414580,25.06,419.05,36,30.25,-8.54,4.69,-0.15,10:55:5,33.664631N,-114.007439W,482.40,0.06,17
1415581,25.06,418.96,35,30.27,-8.54,4.69,-0.15,10:55:6,33.664631N,-114.007439W,482.40,0.05,17
1416582,25.05,418.96,36,30.29,-8.54,4.69,-0.14,10:55:7,33.664631N,-114.007439W,482.40,0.10,17
1417583,25.04,418.96,35,30.28,-8.53,4.71,-0.15,10:55:8,33.664631N,-114.007439W,482.40,0.14,17
1418584,25.03,419.05,36,30.31,-8.52,4.70,-0.17,10:55:9,33.664631N,-114.007439W,482.40,0.15,18
1419585,25.02,419.05,36,30.32,-8.53,4.69,-0.15,10:55:10,33.664631N,-114.007439W,482.40,0.13,18
1420586,25.00,419.05,35,30.29,-8.39,4.80,-0.24,10:55:11,33.664627N,-114.007439W,482.40,0.08,18
1421587,24.99,419.13,36,30.36,-8.68,4.48,0.07,10:55:12,33.664627N,-114.007439W,482.30,0.16,18
1422588,24.97,419.13,36,30.27,-8.65,4.51,0.02,10:55:13,33.664627N,-114.007439W,482.40,0.20,18
1423589,24.96,419.13,35,30.27,-8.65,4.51,0.01,10:55:14,33.664627N,-114.007439W,482.40,0.28,18
1424590,24.95,419.13,35,30.29,-8.64,4.52,0.00,10:55:15,33.664627N,-114.007439W,482.30,0.23,17
1425591,24.95,419.13,35,30.31,-8.65,4.52,0.01,10:55:16,33.664627N,-114.007439W,482.10,0.20,17
1426592,24.95,419.13,35,30.32,-8.65,4.52,0.01,10:55:17,33.664627N,-114.007439W,482.10,0.12,17
1427593,24.96,419.13,35,30.28,-8.64,4.52,0.01,10:55:18,33.664627N,-114.007439W,482.10,0.07,18
1428594,24.97,419.22,35,30.32,-8.64,4.51,0.01,10:55:19,33.664627N,-114.007439W,482.10,0.07,18
1429595,24.99,419.13,35,30.29,-8.64,4.52,0.02,10:55:20,33.664627N,-114.007439W,482.10,0.08,18
1430596,25.00,419.22,35,30.30,-8.65,4.52,0.01,10:55:21,33.664627N,-114.007439W,482.10,0.07,18
1431597,25.01,419.22,35,30.31,-8.64,4.53,0.00,10:55:22,33.664631N,-114.007439W,482.10,0.06,18
1432598,25.02,419.22,35,30.35,-8.64,4.52,0.00,10:55:23,33.664631N,-114.007439W,482.10,0.06,18
1433599,25.03,419.22,35,30.33,-8.64,4.52,0.01,10:55:24,33.664631N,-114.007439W,482.10,0.05,18
1434600,25.04,419.13,35,30.34,-8.64,4.52,0.01,10:55:25,33.664631N,-114.007439W,482.10,0.03,18
1435601,25.03,419.13,35,30.36,-8.65,4.52,0.01,10:55:26,33.664631N,-114.007439W,482.10,0.03,18
1436602,25.04,419.22,35,30.32,-8.65,4.52,0.00,10:55:27,33.664631N,-114.007439W,482.10,0.05,18
1437603,25.05,419.31,35,30.34,-8.65,4.52,0.01,10:55:28,33.664631N,-114.007439W,482.10,0.09,18
1438604,25.06,419.31,35,30.35,-8.66,4.52,0.01,10:55:29,33.664631N,-114.007439W,482.10,0.05,18
1439605,25.06,419.39,35,30.37,-8.64,4.53,0.01,10:55:30,33.664631N,-114.007439W,482.10,0.07,18
1440606,25.07,419.31,36,30.34,-8.64,4.53,0.00,10:55:31,33.664631N,-114.007439W,482.10,0.01,18
1441607,25.07,419.22,36,30.34,-8.65,4.52,0.02,10:55:32,33.664631N,-114.007439W,482.10,0.15,18
1442608,25.08,419.13,36,30.37,-8.64,4.52,0.00,10:55:33,33.664631N,-114.007439W,482.10,0.06,18
1443609,25.09,419.13,36,30.37,-8.64,4.52,0.01,10:55:34,33.664631N,-114.007439W,482.10,0.02,18
1444610,25.08,419.13,36,30.36,-8.65,4.52,0.01,10:55:35,33.664631N,-114.007439W,482.10,0.07,18
1445611,25.07,419.13,36,30.33,-8.64,4.52,0.00,10:55:36,33.664631N,-114.007439W,482.20,0.08,18
1446612,25.07,419.22,36,30.38,-8.64,4.52,0.02,10:55:37,33.664631N,-114.007439W,482.20,0.07,17
1447613,25.07,419.22,36,30.33,-8.64,4.51,0.01,10:55:38,33.664631N,-114.007439W,482.20,0.28,17
1448614,25.06,419.22,36,30.38,-8.64,4.52,0.00,10:55:39,33.664631N,-114.007439W,482.20,0.18,18
1449615,25.05,419.22,36,30.38,-8.64,4.52,0.01,10:55:40,33.664631N,-114.007439W,482.10,0.16,18
1450616,25.04,419.22,36,30.35,-8.63,4.53,0.00,10:55:41,33.664631N,-114.007439W,482.10,0.09,18
1451617,25.02,419.22,36,30.39,-8.63,4.52,0.01,10:55:42,33.664631N,-114.007439W,482.10,0.13,18
1452618,25.01,419.13,36,30.39,-8.65,4.51,0.01,10:55:43,33.664631N,-114.007439W,482.10,0.01,18
1453619,24.99,419.22,36,30.41,-8.64,4.52,0.01,10:55:44,33.664631N,-114.007439W,482.00,0.01,18
1454620,24.98,419.22,36,30.40,-8.64,4.52,0.01,10:55:45,33.664631N,-114.007439W,482.00,0.02,18
1455621,24.97,419.31,36,30.38,-8.64,4.52,0.00,10:55:46,33.664631N,-114.007439W,482.00,0.07,18
1456622,24.96,419.31,38,30.41,-8.64,4.52,0.01,10:55:47,33.664631N,-114.007439W,482.00,0.14,18
1457623,24.95,419.31,38,30.39,-8.64,4.51,0.01,10:55:48,33.664631N,-114.007439W,481.90,0.15,18
1458624,24.95,419.39,38,30.38,-8.65,4.52,0.00,10:55:49,33.664631N,-114.007439W,481.90,0.21,18
1459625,24.95,419.39,36,30.41,-8.65,4.51,0.00,10:55:50,33.664631N,-114.007439W,481.90,0.09,18
1460626,24.95,419.39,38,30.38,-8.64,4.52,0.00,10:55:51,33.664627N,-114.007439W,481.90,0.05,18
1461627,24.96,419.31,38,30.41,-8.64,4.52,0.00,10:55:52,33.664627N,-114.007439W,481.90,0.03,18
1462628,24.96,419.31,36,30.37,-8.64,4.51,0.00,10:55:53,33.664627N,-114.007439W,481.90,0.06,18
1463629,24.96,419.31,38,30.41,-8.65,4.52,0.01,10:55:54,33.664627N,-114.007439W,481.90,0.03,18
1464630,24.95,419.31,36,30.40,-8.64,4.52,0.00,10:55:55,33.664627N,-114.007439W,482.00,0.05,18
1465631,24.94,419.22,38,30.41,-8.64,4.52,0.01,10:55:56,33.664627N,-114.007439W,482.00,0.05,18
1466632,24.93,419.22,36,30.39,-8.64,4.52,0.01,10:55:57,33.664627N,-114.007439W,482.00,0.06,18
1467633,24.93,419.22,36,30.41,-8.65,4.51,0.01,10:55:58,33.664627N,-114.007439W,482.00,0.06,18
1468634,24.93,419.31,36,30.41,-8.65,4.52,0.00,10:55:59,33.664627N,-114.007439W,482.00,0.12,18
1469635,24.92,419.31,36,30.43,-8.64,4.52,0.00,10:56:0,33.664627N,-114.007439W,482.00,0.12,18
1470636,24.91,419.31,36,30.41,-8.64,4.53,0.00,10:56:1,33.664627N,-114.007439W,482.00,0.06,18
1471637,24.90,419.39,36,30.42,-8.65,4.51,0.02,10:56:2,33.664631N,-114.007439W,482.00,0.02,18
1472638,24.90,419.39,36,30.43,-8.63,4.52,0.00,10:56:3,33.664631N,-114.007439W,481.90,0.14,18
1473639,24.88,419.39,36,30.43,-8.64,4.51,0.00,10:56:4,33.664631N,-114.007439W,481.80,0.13,18
1474640,24.86,419.39,36,30.41,-8.63,4.52,0.00,10:56:5,33.664627N,-114.007439W,481.80,0.07,18
1475641,24.84,419.31,36,30.44,-8.64,4.52,0.01,10:56:6,33.664627N,-114.007439W,481.70,0.16,18
1476642,24.84,419.31,35,30.43,-8.65,4.52,0.01,10:56:7,33.664627N,-114.007439W,481.70,0.14,18
1477643,24.84,419.22,35,30.44,-8.64,4.52,0.01,10:56:8,33.664627N,-114.007439W,481.70,0.09,18
1478644,24.83,419.13,36,30.42,-8.65,4.51,0.01,10:56:9,33.664627N,-114.007439W,481.70,0.08,18
1479645,24.82,419.22,36,30.46,-8.65,4.52,0.01,10:56:10,33.664627N,-114.007439W,481.70,0.06,18
1480646,24.81,419.31,35,30.44,-8.64,4.52,0.01,10:56:11,33.664627N,-114.007439W,481.60,0.07,18
1481647,24.80,419.31,35,30.44,-8.64,4.52,0.01,10:56:12,33.664627N,-114.007439W,481.60,0.17,18
1482648,24.80,419.31,36,30.44,-8.64,4.52,0.01,10:56:13,33.664627N,-114.007439W,481.70,0.02,18
1483649,24.80,419.31,36,30.45,-8.64,4.51,0.02,10:56:14,33.664627N,-114.007439W,481.70,0.03,18
1484650,24.80,419.31,36,30.43,-8.64,4.52,0.00,10:56:15,33.664627N,-114.007439W,481.70,0.05,18
1485651,24.80,419.31,36,30.44,-8.64,4.53,0.01,10:56:16,33.664627N,-114.007439W,481.60,0.23,18
1486652,24.79,419.39,35,30.47,-8.63,4.52,0.00,10:56:17,33.664627N,-114.007439W,481.70,0.08,18
1487653,24.77,419.31,35,30.44,-8.63,4.53,0.00,10:56:18,33.664627N,-114.007439W,481.70,0.14,18
1488654,24.76,419.39,35,30.49,-8.64,4.52,0.01,10:56:19,33.664627N,-114.007439W,481.70,0.12,18
1489655,24.74,419.39,35,30.46,-8.65,4.52,0.02,10:56:20,33.664627N,-114.007439W,481.60,0.22,18
1490656,24.73,419.39,36,30.49,-8.65,4.51,0.01,10:56:21,33.664627N,-114.007439W,481.60,0.10,18
1491657,24.72,419.48,35,30.45,-8.64,4.52,0.00,10:56:22,33.664627N,-114.007439W,481.60,0.08,18
1492658,24.73,419.48,36,30.50,-8.65,4.52,0.01,10:56:23,33.664627N,-114.007439W,481.60,0.05,18
1493659,24.73,419.57,35,30.50,-8.63,4.53,0.02,10:56:24,33.664627N,-114.007439W,481.60,0.12,18
1494660,24.73,419.48,36,30.48,-8.65,4.51,0.00,10:56:25,33.664627N,-114.007439W,481.50,0.17,18
1495661,24.73,419.57,38,30.50,-8.65,4.52,0.01,10:56:26,33.664627N,-114.007439W,481.50,0.13,18
1496662,24.72,419.57,36,30.50,-8.65,4.51,0.00,10:56:27,33.664627N,-114.007439W,481.50,0.12,18
1497663,24.71,419.57,38,30.47,-8.66,4.52,0.01,10:56:28,33.664627N,-114.007439W,481.50,0.08,18
1498664,24.70,419.57,38,30.47,-8.65,4.52,0.00,10:56:29,33.664627N,-114.007439W,481.50,0.18,18
1499665,24.69,419.57,38,30.48,-8.63,4.52,0.00,10:56:30,33.664631N,-114.007439W,481.50,0.12,18
1500666,24.69,419.48,38,30.50,-8.63,4.53,-0.00,10:56:31,33.664627N,-114.007439W,481.50,0.17,18
1501667,24.70,419.39,38,30.49,-8.65,4.52,0.01,10:56:32,33.664627N,-114.007439W,481.60,0.14,18
time_since_start,bme_temp,bme_alt,uv,ism_temp,acc_x,acc_y,acc_z,gps_time,latitude,longitude,gps_alt,speed,sats
1201838,25.76,943.96,0,24.15,-7.16,4.31,-1.34,4:10:59,34.196999N,-112.961929W,990.30,11.26,18
1202839,25.75,943.59,0,24.20,-16.37,6.62,6.24,4:11:0,34.196968N,-112.961967W,989.90,10.82,18
1203840,25.74,943.68,0,24.11,-7.95,3.58,1.15,4:11:0,34.196968N,-112.961967W,989.90,10.31,18
1204841,25.73,943.68,0,24.19,-8.95,3.59,1.06,4:11:1,34.196945N,-112.962013W,989.60,9.52,18
1205842,25.73,943.68,0,24.13,-8.26,3.97,1.96,4:11:3,34.196899N,-112.962074W,988.60,9.04,18
1206843,25.72,943.68,0,24.17,-8.63,3.11,1.94,4:11:4,34.196869N,-112.962097W,988.30,9.81,18
1207844,25.70,943.59,0,24.12,-8.36,4.81,2.42,4:11:5,34.196850N,-112.962135W,988.10,9.84,17
1208846,25.70,943.50,0,24.14,-8.02,4.12,2.02,4:11:6,34.196823N,-112.962173W,987.60,10.39,17
1209846,25.69,943.50,0,24.15,-7.83,4.22,2.85,4:11:7,34.196793N,-112.962212W,987.30,10.46,17
1210847,25.68,943.41,0,24.14,-10.07,5.54,1.59,4:11:8,34.196770N,-112.962250W,987.20,10.46,18
1211848,25.67,943.23,0,24.14,-10.00,4.56,2.53,4:11:9,34.196743N,-112.962288W,987.10,10.47,18
1212849,25.67,943.23,0,24.14,-7.73,3.86,-0.88,4:11:10,34.196716N,-112.962318W,987.30,10.41,18
1213850,25.66,943.23,0,24.17,-8.77,3.25,1.17,4:11:11,34.196690N,-112.962341W,987.70,9.61,18
1214851,25.64,943.14,0,24.14,-9.36,5.23,2.73,4:11:12,34.196667N,-112.962379W,988.20,8.93,18
1215852,25.64,943.04,0,24.14,-8.51,4.35,2.49,4:11:13,34.196636N,-112.962410W,988.30,9.25,18
1216853,25.64,942.86,0,24.13,-8.94,3.80,2.11,4:11:14,34.196602N,-112.962448W,988.40,10.08,18
1217854,25.64,942.95,0,24.12,-8.49,3.61,3.07,4:11:15,34.196568N,-112.962494W,988.20,11.18,18
1218855,25.63,942.77,0,24.18,-8.93,4.72,3.15,4:11:16,34.196529N,-112.962547W,988.10,11.38,18
1219856,25.63,942.77,0,24.14,-8.13,3.55,2.41,4:11:17,34.196491N,-112.962585W,988.20,11.59,18
1220857,25.62,942.59,0,24.15,-9.11,4.65,2.57,4:11:18,34.196457N,-112.962624W,988.10,11.39,18
1221858,25.61,942.59,0,24.14,-8.20,4.46,0.81,4:11:19,34.196430N,-112.962662W,988.10,10.59,18
1222859,25.60,942.31,0,24.14,-8.85,5.32,1.23,4:11:20,34.196396N,-112.962700W,988.10,10.88,18
1223860,25.60,942.22,0,24.15,-9.26,5.01,2.06,4:11:21,34.196369N,-112.962738W,987.80,10.80,18
1224861,25.59,942.13,0,24.13,-8.42,5.30,1.12,4:11:22,34.196339N,-112.962776W,987.70,10.14,18
1225862,25.58,942.13,0,24.17,-8.28,3.68,2.70,4:11:23,34.196316N,-112.962807W,987.70,9.81,18
1226863,25.58,942.04,0,24.17,-9.05,4.06,1.15,4:11:24,34.196293N,-112.962845W,987.30,9.50,18
1227864,25.59,942.04,0,24.14,-8.50,4.12,2.50,4:11:25,34.196274N,-112.962883W,987.10,9.30,18
1228865,25.59,941.86,0,24.14,-10.98,5.24,-1.72,4:11:26,34.196251N,-112.962921W,986.90,8.81,18
1229866,25.59,941.68,0,24.20,-8.37,4.28,-0.04,4:11:27,34.196239N,-112.962967W,986.50,9.20,18
1230867,25.58,941.40,0,24.18,-8.47,3.50,2.25,4:11:28,34.196232N,-112.963005W,986.20,9.17,18
1231868,25.57,941.49,0,24.14,-8.26,3.63,1.21,4:11:29,34.196224N,-112.963043W,985.80,9.25,18
1232869,25.57,941.22,0,24.15,-9.15,5.19,3.68,4:11:30,34.196209N,-112.963097W,985.70,9.48,18
1233870,25.56,941.22,0,24.20,-4.75,2.79,-0.78,4:11:31,34.196194N,-112.963135W,985.90,9.48,18
1234871,25.55,941.13,0,24.19,-13.17,5.98,-0.51,4:11:32,34.196178N,-112.963173W,985.80,9.53,18
1235872,25.55,941.13,0,24.14,-6.39,3.73,-0.38,4:11:33,34.196167N,-112.963211W,985.80,9.09,18
1236873,25.54,941.13,0,24.17,-8.20,4.08,0.73,4:11:34,34.196156N,-112.963249W,986.40,8.34,18
1237874,25.54,941.04,0,24.11,-8.73,4.14,0.03,4:11:35,34.196148N,-112.963287W,986.90,8.40,18
1238875,25.53,940.86,0,24.16,-8.70,4.24,1.58,4:11:36,34.196133N,-112.963318W,987.30,8.09,18
1239876,25.52,940.86,0,24.14,-7.73,4.47,1.79,4:11:37,34.196110N,-112.963341W,987.30,8.13,18
1240877,25.52,940.76,0,24.19,-9.72,5.09,1.21,4:11:38,34.196091N,-112.963364W,987.30,8.10,18
1241878,25.51,940.67,0,24.17,-8.77,3.61,0.03,4:11:39,34.196068N,-112.963394W,987.10,7.68,18
1242879,25.51,940.76,0,24.13,-9.17,3.77,1.61,4:11:40,34.196037N,-112.963417W,986.80,7.47,18
1243880,25.51,940.67,0,24.17,-8.42,3.97,0.58,4:11:41,34.196014N,-112.963440W,986.50,8.61,17
1244881,25.51,940.67,0,24.15,-8.94,4.50,0.83,4:11:42,34.195980N,-112.963478W,985.90,9.59,17
1245882,25.51,940.67,0,24.16,-8.93,5.02,0.98,4:11:43,34.195953N,-112.963516W,985.60,10.27,17
1246883,25.50,940.67,0,24.17,-9.15,4.23,1.67,4:11:44,34.195919N,-112.963562W,985.30,10.50,17
1247884,25.50,940.58,0,24.19,-9.30,5.08,1.57,4:11:45,34.195889N,-112.963600W,985.10,10.49,17
1248885,25.49,940.49,0,24.16,-7.93,4.23,2.23,4:11:46,34.195862N,-112.963623W,985.10,10.42,17
1249886,25.48,940.40,0,24.16,-8.51,3.79,1.41,4:11:47,34.195835N,-112.963661W,985.10,10.36,17
1250887,25.48,940.31,0,24.18,-10.75,7.63,1.66,4:11:48,34.195808N,-112.963699W,985.10,10.35,17
1251888,25.47,940.13,0,24.15,-12.65,5.55,7.48,4:11:49,34.195782N,-112.963737W,985.00,10.60,17
1252889,25.47,939.85,0,24.18,-5.82,3.34,3.07,4:11:50,34.195759N,-112.963776W,985.10,10.30,17
1253890,25.46,939.58,0,24.17,-9.40,6.27,-0.12,4:11:51,34.195736N,-112.963814W,984.90,9.42,17
1254891,25.46,939.30,0,24.20,-9.49,5.91,1.35,4:11:52,34.195717N,-112.963852W,984.60,9.61,17
1255892,25.46,939.21,0,24.20,-8.89,3.23,3.35,4:11:53,34.195702N,-112.963875W,984.50,7.55,17
1256893,25.46,938.94,0,24.20,-11.36,5.78,-0.52,4:11:54,34.195686N,-112.963905W,984.40,6.80,17
1257894,25.46,938.85,0,24.16,-9.13,3.99,1.30,4:11:55,34.195671N,-112.963928W,984.20,6.25,17
1258895,25.47,938.85,0,24.16,-8.85,4.50,1.32,4:11:56,34.195648N,-112.963959W,983.90,6.85,17
1259896,25.47,938.85,0,24.16,-8.95,4.34,1.52,4:11:57,34.195633N,-112.963982W,983.60,7.56,17
1260897,25.47,938.76,0,24.18,-9.38,3.75,0.19,4:11:58,34.195618N,-112.964020W,983.10,7.63,17
1261898,25.47,938.76,0,24.19,-9.96,4.68,0.76,4:11:59,34.195602N,-112.964058W,982.70,7.91,17
1262899,25.48,938.67,0,24.13,-9.47,4.41,0.77,4:12:0,34.195591N,-112.964096W,982.40,8.63,17
1263900,25.48,938.58,0,24.20,-9.04,3.53,1.88,4:12:1,34.195580N,-112.964134W,982.30,8.62,17
1264901,25.48,938.58,0,24.14,-8.88,4.33,2.16,4:12:2,34.195557N,-112.964172W,982.90,8.62,17
1265902,25.49,938.58,0,24.15,-8.48,5.02,1.00,4:12:3,34.195538N,-112.964211W,982.90,8.95,17
1266903,25.49,938.48,0,24.21,-9.29,4.93,2.05,4:12:4,34.195518N,-112.964249W,982.40,8.53,17
1267904,25.50,938.48,0,24.19,-9.69,3.43,1.95,4:12:5,34.195499N,-112.964272W,982.10,8.16,17
1268906,25.50,938.39,0,24.23,-8.86,4.51,1.49,4:12:6,34.195477N,-112.964317W,982.40,7.37,17
1269906,25.50,938.30,0,24.19,-8.24,3.58,0.30,4:12:7,34.195461N,-112.964340W,982.60,6.48,17
1270907,25.51,938.30,0,24.16,-8.82,4.17,1.23,4:12:8,34.195446N,-112.964378W,982.80,6.48,18
1271909,25.51,938.30,0,24.15,-8.57,4.13,2.05,4:12:9,34.195435N,-112.964401W,983.00,7.60,18
1272909,25.51,938.21,0,24.16,-9.27,5.15,0.45,4:12:10,34.195415N,-112.964432W,982.90,7.61,18
1273910,25.52,938.21,0,24.15,-9.34,4.92,0.94,4:12:11,34.195396N,-112.964455W,983.20,6.72,18
1274912,25.52,938.12,0,24.20,-8.78,5.70,-0.05,4:12:12,34.195377N,-112.964478W,983.30,6.72,18
1275912,25.51,938.12,0,24.14,-9.18,5.24,-0.36,4:12:13,34.195358N,-112.964508W,983.30,6.81,18
1276913,25.50,938.03,0,24.18,-7.99,3.42,0.97,4:12:14,34.195339N,-112.964516W,983.60,7.01,18
1277914,25.50,937.94,0,24.20,-9.42,4.77,1.67,4:12:15,34.195320N,-112.964554W,983.50,6.94,18
1278915,25.49,937.85,0,24.17,-7.95,5.08,0.20,4:12:16,34.195301N,-112.964584W,983.50,6.28,18
1279916,25.49,937.66,0,24.13,-7.92,3.87,1.23,4:12:17,34.195282N,-112.964607W,984.20,5.80,18
1280917,25.49,937.57,0,24.16,-8.25,4.02,1.25,4:12:18,34.195267N,-112.964630W,984.50,6.24,18
1281918,25.50,937.57,0,24.19,-9.98,5.41,-0.04,4:12:19,34.195244N,-112.964661W,984.50,6.24,18
1282919,25.50,937.48,0,24.17,-9.10,3.28,2.23,4:12:20,34.195232N,-112.964668W,984.40,6.43,18
1283920,25.51,937.57,0,24.17,-8.54,3.75,1.01,4:12:21,34.195217N,-112.964699W,984.10,6.69,18
1284921,25.51,937.57,0,24.16,-8.89,4.15,2.72,4:12:22,34.195198N,-112.964722W,983.90,7.08,18
1285922,25.51,937.57,0,24.19,-8.64,4.96,1.55,4:12:23,34.195175N,-112.964752W,983.70,7.10,18
1286923,25.51,937.57,0,24.12,-8.67,3.99,2.91,4:12:24,34.195156N,-112.964775W,983.80,7.99,18
1287924,25.52,937.39,0,24.20,-8.99,4.75,1.67,4:12:25,34.195137N,-112.964798W,983.50,8.52,18
1288925,25.52,937.48,0,24.16,-8.48,3.88,2.45,4:12:26,34.195110N,-112.964828W,983.00,9.13,18
1289926,25.51,937.39,0,24.17,-8.20,5.22,1.55,4:12:27,34.195087N,-112.964867W,982.80,9.39,18
1290927,25.51,937.39,0,24.16,-8.22,5.26,1.39,4:12:28,34.195061N,-112.964905W,982.50,8.76,17
1291928,25.50,937.12,0,24.14,-8.80,5.78,-0.58,4:12:29,34.195042N,-112.964943W,982.00,7.84,18
1292929,25.49,936.93,0,24.16,-8.75,5.77,-0.60,4:12:30,34.195023N,-112.964981W,981.80,6.92,18
1293930,25.49,936.84,0,24.14,-9.59,3.50,0.29,4:12:31,34.195004N,-112.965004W,981.80,6.26,18
1294931,25.50,936.84,0,24.20,-9.57,4.17,2.44,4:12:32,34.194988N,-112.965027W,982.00,6.32,18
1295932,25.50,936.75,0,24.14,-6.75,3.48,0.14,4:12:33,34.194969N,-112.965057W,982.00,7.22,18
1296933,25.49,936.66,0,24.19,-8.65,3.12,1.07,4:12:34,34.194950N,-112.965080W,982.00,7.84,18
1297934,25.49,936.84,0,24.16,-10.27,2.59,0.11,4:12:35,34.194927N,-112.965111W,982.20,8.87,18
1298935,25.49,936.66,0,24.12,-8.80,4.75,1.76,4:12:36,34.194908N,-112.965149W,982.40,8.89,18
1299936,25.48,936.75,0,24.19,-8.52,3.54,2.09,4:12:37,34.194889N,-112.965172W,983.10,8.62,18
1300937,25.47,936.75,0,24.14,-8.17,4.20,1.08,4:12:38,34.194870N,-112.965195W,983.50,8.57,18
1301938,25.46,936.66,0,24.16,-9.14,4.59,2.20,4:12:39,34.194843N,-112.965233W,983.60,9.04,18
1302939,25.45,936.66,0,24.16,-8.77,5.22,1.09,4:12:40,34.194824N,-112.965271W,983.30,9.40,18
1303940,25.45,936.57,0,24.20,-8.79,4.74,2.76,4:12:41,34.194798N,-112.965309W,983.10,9.48,18
1304941,25.44,936.57,0,24.18,-8.77,4.15,1.82,4:12:42,34.194771N,-112.965347W,982.60,9.43,18
1305942,25.44,936.48,0,24.16,-8.68,4.51,2.08,4:12:43,34.194748N,-112.965385W,982.30,9.38,18
1306943,25.44,936.30,0,24.17,-7.90,6.15,2.54,4:12:44,34.194725N,-112.965424W,982.00,9.10,18
1307944,25.43,936.30,0,24.17,-8.71,3.37,0.03,4:12:45,34.194702N,-112.965454W,982.30,8.76,18
1308945,25.42,936.11,0,24.16,-8.31,4.60,1.33,4:12:46,34.194679N,-112.965492W,982.10,8.02,18
1309946,25.41,936.20,0,24.13,-8.16,4.33,1.36,4:12:47,34.194656N,-112.965515W,982.20,8.03,18
1310947,25.40,936.20,0,24.15,-7.79,4.05,2.52,4:12:48,34.194630N,-112.965546W,982.10,7.79,18
1311948,25.40,936.02,0,24.18,-6.40,4.81,0.50,4:12:49,34.194607N,-112.965584W,981.70,8.07,17
1312949,25.39,936.02,0,24.20,-9.40,4.77,2.51,4:12:50,34.194584N,-112.965607W,981.00,8.54,18
1313950,25.38,936.02,0,24.18,-7.65,4.13,1.96,4:12:51,34.194557N,-112.965630W,980.80,8.56,18
1314951,25.36,936.11,0,24.16,-8.67,4.16,1.71,4:12:52,34.194527N,-112.965645W,980.90,8.33,18
1315952,25.35,936.11,0,24.18,-8.12,4.00,2.21,4:12:53,34.194500N,-112.965660W,980.60,8.74,18
1316953,25.34,936.02,0,24.15,-8.50,4.98,1.63,4:12:54,34.194469N,-112.965668W,980.60,8.15,18
1317954,25.34,936.02,0,24.16,-9.03,4.02,1.95,4:12:55,34.194439N,-112.965668W,980.30,8.11,18
1318955,25.34,936.02,0,24.15,-8.67,5.51,1.02,4:12:56,34.194405N,-112.965683W,980.00,8.32,18
1319956,25.34,935.93,0,24.19,-7.29,3.35,1.40,4:12:57,34.194370N,-112.965683W,979.80,8.29,18
1320957,25.34,935.75,0,24.17,-7.51,4.23,0.42,4:12:58,34.194344N,-112.965683W,979.70,7.98,18
1321958,25.34,935.66,0,24.16,-9.16,4.14,0.69,4:12:59,34.194317N,-112.965683W,980.10,8.06,18
1322959,25.34,935.57,0,24.17,-8.75,4.68,0.93,4:13:0,34.194286N,-112.965698W,979.80,8.06,18
1323960,25.34,935.38,0,24.22,-9.12,4.80,1.41,4:13:1,34.194252N,-112.965706W,979.30,8.07,18
1324961,25.34,935.29,0,24.21,-8.96,4.63,0.20,4:13:2,34.194221N,-112.965706W,979.10,8.16,18
1325962,25.35,935.11,0,24.15,-7.95,4.50,1.05,4:13:3,34.194187N,-112.965721W,978.50,8.45,18
1326963,25.35,935.02,0,24.17,-9.18,5.06,1.55,4:13:4,34.194153N,-112.965736W,977.70,8.71,18
1327964,25.35,934.84,0,24.14,-9.40,4.25,1.00,4:13:5,34.194115N,-112.965744W,977.00,9.27,18
1328965,25.35,934.75,0,24.19,-7.87,3.44,1.03,4:13:6,34.194077N,-112.965759W,976.40,9.35,18
1329966,25.35,934.66,0,24.21,-8.95,4.58,2.65,4:13:7,34.194038N,-112.965775W,975.90,9.77,18
1330967,25.35,934.47,0,24.20,-7.99,3.93,1.36,4:13:8,34.193996N,-112.965775W,975.70,9.75,18
1331968,25.35,934.38,0,24.19,-7.65,3.37,1.37,4:13:9,34.193958N,-112.965782W,975.30,9.75,18
1332969,25.35,934.20,0,24.17,-8.01,3.22,1.19,4:13:10,34.193928N,-112.965797W,975.40,9.51,18
1333970,25.36,934.11,0,24.14,-8.90,4.29,2.11,4:13:11,34.193890N,-112.965797W,975.90,9.50,18
1334971,25.36,934.11,0,24.14,-9.40,4.59,1.39,4:13:12,34.193867N,-112.965813W,976.30,7.62,17
1335972,25.36,933.93,0,24.20,-8.85,4.27,1.70,4:13:13,34.193836N,-112.965836W,976.20,7.65,17
1336973,25.36,933.83,0,24.14,-8.80,3.73,1.96,4:13:14,34.193810N,-112.965866W,976.30,7.69,17
1337974,25.36,933.65,0,24.17,-9.02,4.57,0.89,4:13:15,34.193783N,-112.965904W,976.20,7.68,17
1338975,25.36,933.47,0,24.14,-8.49,3.92,0.84,4:13:16,34.193768N,-112.965927W,976.60,8.08,17
1339976,25.37,933.29,0,24.21,-8.76,4.64,0.60,4:13:17,34.193745N,-112.965965W,976.50,8.08,17
1340977,25.37,933.20,0,24.19,-7.55,4.36,0.72,4:13:18,34.193722N,-112.966003W,976.70,8.41,16
1341978,25.37,933.01,0,24.16,-11.00,7.05,-0.59,4:13:19,34.193707N,-112.966026W,977.00,8.07,17
1342979,25.37,933.01,0,24.14,-10.64,4.82,0.62,4:13:20,34.193680N,-112.966057W,977.10,8.26,17
1343980,25.37,932.92,0,24.16,-8.32,3.50,0.84,4:13:21,34.193657N,-112.966095W,977.50,8.28,17
1344981,25.37,932.74,0,24.13,-8.66,3.74,0.72,4:13:22,34.193630N,-112.966133W,977.80,8.82,17
1345982,25.37,932.74,0,24.14,-7.64,4.39,-1.19,4:13:23,34.193607N,-112.966156W,977.60,8.86,17
1346983,25.37,932.74,0,24.13,-7.89,5.57,-0.56,4:13:24,34.193577N,-112.966179W,977.40,9.05,17
1347984,25.37,932.83,0,24.15,-8.33,3.98,0.76,4:13:25,34.193550N,-112.966194W,977.20,9.01,17
1348985,25.38,932.92,0,24.14,-9.17,4.13,1.79,4:13:26,34.193512N,-112.966217W,976.70,9.35,17
1349986,25.38,932.92,0,24.16,-8.46,3.78,2.67,4:13:27,34.193481N,-112.966248W,976.30,9.42,17
1350987,25.37,932.92,0,24.13,-8.25,3.64,2.02,4:13:28,34.193451N,-112.966270W,976.20,8.93,17
1351988,25.37,932.74,0,24.13,-7.70,5.67,0.48,4:13:29,34.193424N,-112.966309W,976.30,8.87,16
1352989,25.36,932.56,0,24.18,-9.80,5.11,2.04,4:13:30,34.193394N,-112.966339W,976.30,8.47,17
1353990,25.35,932.38,0,24.18,-9.11,4.16,1.43,4:13:31,34.193367N,-112.966362W,976.50,8.48,17
1354991,25.35,932.10,0,24.13,-8.37,4.98,0.52,4:13:32,34.193348N,-112.966385W,976.60,8.89,17
1355992,25.35,931.92,0,24.18,-8.28,4.79,1.28,4:13:33,34.193321N,-112.966423W,976.50,9.09,17
1356993,25.34,931.65,0,24.15,-8.51,4.35,2.10,4:13:34,34.193298N,-112.966461W,976.50,8.30,17
1357994,25.33,931.56,0,24.15,-9.14,4.77,1.12,4:13:35,34.193279N,-112.966499W,976.30,8.25,17
1358995,25.33,931.37,0,24.13,-11.49,7.51,2.49,4:13:36,34.193264N,-112.966530W,976.80,7.65,17
1359996,25.32,931.37,0,24.18,-9.71,4.40,-0.07,4:13:37,34.193249N,-112.966553W,977.40,7.56,17
1360997,25.32,931.19,0,24.14,-8.49,5.20,0.76,4:13:38,34.193230N,-112.966576W,977.20,7.85,17
1361998,25.31,931.19,0,24.19,-7.16,2.69,0.95,4:13:39,34.193211N,-112.966621W,977.50,7.87,17
1362999,25.30,931.10,0,24.19,-10.27,5.29,4.03,4:13:40,34.193195N,-112.966644W,977.90,8.09,17
1364000,25.30,931.01,0,24.16,-7.70,3.29,2.54,4:13:41,34.193172N,-112.966667W,977.80,7.87,17
1365001,25.30,930.92,0,24.19,-8.76,3.16,3.85,4:13:42,34.193150N,-112.966698W,977.70,8.16,17
1366002,25.30,930.83,0,24.22,-8.23,4.02,3.70,4:13:43,34.193123N,-112.966736W,977.30,8.39,17
1367003,25.30,930.83,0,24.23,-8.47,4.56,3.50,4:13:44,34.193104N,-112.966759W,977.00,7.87,17
1368004,25.30,930.83,0,24.23,-7.81,3.19,3.45,4:13:45,34.193085N,-112.966782W,977.00,7.86,17
1369005,25.30,930.65,0,24.23,-8.62,4.05,2.68,4:13:46,34.193069N,-112.966820W,976.50,7.78,17
1370006,25.30,930.55,0,24.20,-8.39,4.24,2.10,4:13:47,34.193050N,-112.966850W,976.50,7.78,17
1371007,25.29,930.46,0,24.20,-8.61,5.12,0.81,4:13:48,34.193031N,-112.966873W,976.20,7.16,17
1372008,25.29,930.37,0,24.20,-8.67,4.35,1.32,4:13:49,34.193016N,-112.966896W,976.30,6.95,17
1373009,25.29,930.28,0,24.21,-7.67,5.31,-1.13,4:13:50,34.192997N,-112.966927W,976.60,7.61,17
1374010,25.29,930.28,0,24.18,-6.93,4.96,-1.38,4:13:51,34.192978N,-112.966965W,976.40,7.22,17
1375011,25.29,930.01,0,24.18,-8.06,4.43,-1.61,4:13:52,34.192955N,-112.966988W,976.20,7.31,17
1376012,25.29,929.92,0,24.19,-8.96,5.51,-0.89,4:13:53,34.192940N,-112.967018W,976.30,7.32,17
1377013,25.28,929.73,0,24.14,-8.82,4.39,0.15,4:13:54,34.192917N,-112.967041W,976.40,7.60,17
1378014,25.27,929.82,0,24.17,-8.74,5.38,0.65,4:13:55,34.192898N,-112.967064W,976.10,7.55,17
1379015,25.27,929.82,0,24.20,-10.35,3.42,3.11,4:13:56,34.192875N,-112.967094W,976.00,7.75,17
1380016,25.26,929.92,0,24.16,-6.83,3.58,-0.03,4:13:57,34.192856N,-112.967133W,975.80,7.39,16
1381017,25.26,929.92,0,24.16,-8.41,4.47,0.28,4:13:58,34.192837N,-112.967155W,975.40,7.32,17
1382018,25.25,929.82,0,24.17,-7.99,5.13,0.90,4:13:59,34.192814N,-112.967178W,974.90,7.27,16
1383019,25.25,929.73,0,24.11,-9.09,4.53,0.89,4:14:0,34.192795N,-112.967209W,974.40,7.33,17
1384020,25.24,929.64,0,24.20,-8.95,4.40,2.34,4:14:1,34.192776N,-112.967232W,974.10,7.34,17
1385021,25.24,929.64,0,24.19,-9.42,3.54,0.84,4:14:2,34.192760N,-112.967247W,973.80,6.86,17
1386022,25.23,929.55,0,24.14,-10.83,5.56,2.81,4:14:3,34.192741N,-112.967285W,973.50,7.16,17
1387023,25.23,929.64,0,24.17,-8.81,4.37,0.63,4:14:4,34.192722N,-112.967308W,973.70,7.71,17
1388024,25.23,929.64,0,24.14,-8.17,5.03,1.33,4:14:5,34.192703N,-112.967331W,973.90,8.31,17
1389025,25.22,929.64,0,24.17,-8.71,4.53,0.97,4:14:6,34.192677N,-112.967361W,973.90,8.60,17
1390026,25.22,929.73,0,24.14,-8.72,4.49,0.93,4:14:7,34.192650N,-112.967400W,973.80,9.10,17
1391027,25.22,929.73,0,24.15,-8.48,2.72,1.97,4:14:8,34.192623N,-112.967438W,973.80,8.62,17
1392028,25.22,929.82,0,24.20,-8.16,3.66,1.00,4:14:9,34.192596N,-112.967476W,973.70,8.41,17
1393029,25.21,929.82,0,24.14,-8.92,4.70,1.28,4:14:10,34.192577N,-112.967499W,973.70,8.71,17
1394030,25.21,929.73,0,24.14,-8.53,3.96,1.93,4:14:11,34.192551N,-112.967537W,973.20,9.32,17
1395031,25.21,929.64,0,24.16,-9.82,4.90,4.59,4:14:12,34.192524N,-112.967575W,972.80,9.76,15
1396032,25.21,929.55,0,24.19,-8.81,4.11,3.34,4:14:13,34.192501N,-112.967628W,972.70,10.17,17
1397033,25.21,929.46,0,24.11,-8.66,4.81,2.14,4:14:14,34.192478N,-112.967667W,972.40,10.50,17
1398034,25.20,929.37,0,24.13,-8.72,3.95,1.36,4:14:15,34.192459N,-112.967705W,973.10,9.94,16
1399035,25.19,929.28,0,24.18,-8.70,4.10,1.68,4:14:16,34.192440N,-112.967758W,972.70,10.74,17
1400036,25.19,929.10,0,24.13,-8.85,4.93,2.76,4:14:17,34.192421N,-112.967812W,972.30,10.53,17
1401037,25.19,929.00,0,24.15,-8.23,4.50,1.36,4:14:18,34.192410N,-112.967850W,972.40,10.29,17
1402038,25.19,928.73,0,24.12,-9.15,4.71,2.89,4:14:19,34.192402N,-112.967896W,971.90,10.34,17
1403039,25.19,928.64,0,24.11,-9.76,5.79,-0.50,4:14:20,34.192390N,-112.967949W,971.30,9.30,17
1404040,25.18,928.55,0,24.18,-8.74,4.90,1.17,4:14:21,34.192379N,-112.967987W,970.80,8.86,17
1405041,25.19,928.37,0,24.17,-9.20,6.00,3.36,4:14:22,34.192368N,-112.968025W,970.40,8.64,17
1406042,25.19,928.18,0,24.17,-7.88,4.47,0.85,4:14:23,34.192360N,-112.968063W,971.00,8.11,16
1407043,25.19,928.18,0,24.20,-7.99,3.46,3.13,4:14:24,34.192348N,-112.968086W,970.90,6.12,17
1408044,25.19,928.09,0,24.13,-9.17,3.44,1.11,4:14:25,34.192341N,-112.968117W,971.50,4.77,17
1409045,25.19,928.00,0,24.16,-8.70,4.19,1.78,4:14:26,34.192329N,-112.968140W,971.40,4.37,17
1410046,25.20,928.00,0,24.15,-9.17,4.95,2.09,4:14:27,34.192314N,-112.968155W,971.50,4.96,17
1411047,25.20,928.09,0,24.16,-8.09,3.57,-0.04,4:14:28,34.192303N,-112.968170W,972.40,4.66,17
1412048,25.20,928.09,0,24.19,-9.12,3.94,1.93,4:14:29,34.192287N,-112.968193W,972.60,5.80,17
1413049,25.20,928.09,0,24.15,-9.26,4.68,2.16,4:14:30,34.192272N,-112.968208W,972.70,6.15,17
1414050,25.20,928.00,0,24.11,-8.54,4.43,1.36,4:14:31,34.192257N,-112.968231W,973.40,6.23,17
1415051,25.20,928.00,0,24.21,-8.56,4.72,1.04,4:14:32,34.192234N,-112.968254W,973.40,6.71,17
1416052,25.21,928.00,0,24.15,-7.68,3.37,1.88,4:14:33,34.192207N,-112.968285W,973.00,7.18,17
1417053,25.21,928.00,0,24.17,-7.91,4.06,1.11,4:14:34,34.192181N,-112.968307W,972.60,7.69,17
1418054,25.21,928.00,0,24.13,-8.91,4.38,2.32,4:14:35,34.192146N,-112.968330W,972.20,7.77,17
1419055,25.22,927.91,0,24.11,-8.78,5.62,1.15,4:14:36,34.192120N,-112.968361W,971.50,7.82,17
1420056,25.22,927.82,0,24.13,-7.73,3.29,3.52,4:14:37,34.192085N,-112.968369W,971.00,7.73,16
1421057,25.22,927.82,0,24.11,-8.20,3.40,2.28,4:14:38,34.192062N,-112.968384W,970.60,7.50,16
1422058,25.21,927.82,0,24.14,-8.57,3.21,2.84,4:14:39,34.192032N,-112.968407W,970.20,7.59,16
1423059,25.22,927.73,0,24.12,-8.37,4.32,1.18,4:14:40,34.192001N,-112.968422W,969.90,8.45,16
1424060,25.22,927.73,0,24.14,-9.66,5.36,1.39,4:14:41,34.191967N,-112.968445W,969.20,8.86,16
1425061,25.21,927.73,0,24.15,-9.09,4.63,2.19,4:14:42,34.191933N,-112.968475W,968.60,9.58,17
1426062,25.21,927.55,0,24.09,-8.58,4.47,1.71,4:14:43,34.191898N,-112.968483W,968.40,9.59,17
1427063,25.20,927.46,0,24.09,-8.93,4.79,1.61,4:14:44,34.191864N,-112.968513W,968.20,9.30,17
1428064,25.20,927.27,0,24.14,-7.99,3.87,1.94,4:14:45,34.191826N,-112.968521W,967.80,9.67,17
1429065,25.19,927.18,0,24.20,-8.67,4.44,3.38,4:14:46,34.191795N,-112.968536W,968.20,9.67,17
1430066,25.19,927.00,0,24.17,-8.77,4.48,0.77,4:14:47,34.191761N,-112.968552W,967.80,9.90,17
1431067,25.19,927.09,0,24.11,-8.30,3.53,1.73,4:14:48,34.191730N,-112.968552W,968.10,9.83,17
1432068,25.18,927.09,0,24.12,-8.50,4.11,2.28,4:14:49,34.191704N,-112.968567W,968.80,9.78,17
1433069,25.18,926.82,0,24.14,-10.02,4.55,3.57,4:14:50,34.191669N,-112.968575W,968.80,10.05,17
1434070,25.18,926.73,0,24.16,-9.37,4.72,2.35,4:14:51,34.191631N,-112.968590W,968.50,10.36,16
1435071,25.18,926.64,0,24.13,-7.85,4.19,2.13,4:14:52,34.191593N,-112.968605W,968.30,10.44,16
1436072,25.17,926.55,0,24.15,-8.04,4.37,1.22,4:14:53,34.191551N,-112.968613W,968.00,10.49,17
1437073,25.17,926.45,0,24.17,-9.91,6.21,2.46,4:14:54,34.191513N,-112.968643W,968.10,10.52,17
1438074,25.16,926.18,0,24.16,-7.73,4.86,2.62,4:14:55,34.191471N,-112.968651W,968.00,10.60,16
1439075,25.15,926.09,0,24.20,-9.77,4.58,1.31,4:14:56,34.191429N,-112.968681W,967.90,10.42,16
1440076,25.15,925.91,0,24.12,-9.02,4.01,2.12,4:14:57,34.191391N,-112.968689W,968.30,10.16,17
1441077,25.14,925.91,0,24.16,-7.97,4.55,0.98,4:14:58,34.191353N,-112.968719W,968.70,10.44,17
1442078,25.13,925.73,0,24.13,-8.56,4.62,1.54,4:14:59,34.191315N,-112.968742W,969.10,10.23,17
1443079,25.12,925.73,0,24.11,-8.93,5.02,1.58,4:15:0,34.191277N,-112.968758W,969.30,10.47,17
1444080,25.11,925.63,0,24.14,-9.15,3.44,2.46,4:15:1,34.191242N,-112.968781W,969.60,10.55,17
1445081,25.10,925.54,0,24.16,-8.51,5.41,0.28,4:15:2,34.191200N,-112.968803W,969.70,10.90,17
1446082,25.09,925.45,0,24.16,-8.79,3.94,2.20,4:15:3,34.191158N,-112.968834W,969.70,10.45,17
1447083,25.09,925.36,0,24.16,-8.62,4.43,0.97,4:15:4,34.191120N,-112.968857W,969.70,10.47,17
1448084,25.09,925.27,0,24.12,-9.16,5.14,1.77,4:15:5,34.191082N,-112.968872W,969.80,10.12,17
1449085,25.08,925.18,0,24.12,-8.00,4.09,0.90,4:15:6,34.191051N,-112.968880W,970.10,9.55,17
1450086,25.08,925.09,0,24.15,-9.60,5.11,2.00,4:15:7,34.191013N,-112.968910W,970.30,9.85,17
1451087,25.07,925.00,0,24.15,-8.83,3.88,1.78,4:15:8,34.190979N,-112.968918W,970.30,9.59,17
1452088,25.07,924.81,0,24.13,-8.67,4.16,1.79,4:15:9,34.190945N,-112.968948W,970.10,9.66,16
1453089,25.07,924.72,0,24.14,-8.93,3.94,2.09,4:15:10,34.190907N,-112.968971W,970.40,10.44,17
1454090,25.06,924.81,0,24.19,-8.73,4.45,1.90,4:15:11,34.190868N,-112.969009W,970.20,10.65,17
1455091,25.05,924.72,0,24.14,-7.88,3.45,2.54,4:15:12,34.190826N,-112.969048W,969.90,11.31,17
1456092,25.05,924.63,0,24.17,-8.79,4.81,1.43,4:15:13,34.190792N,-112.969078W,970.20,11.36,17
1457093,25.04,924.63,0,24.18,-10.76,3.46,4.38,4:15:14,34.190765N,-112.969116W,970.50,11.04,17
1458094,25.03,924.45,0,24.18,-9.44,5.52,1.36,4:15:15,34.190731N,-112.969154W,970.50,11.00,17
1459095,25.02,924.45,0,24.19,-8.82,4.95,2.19,4:15:16,34.190701N,-112.969177W,970.60,10.50,17
1460096,25.02,924.36,0,24.21,-9.60,4.98,4.11,4:15:17,34.190666N,-112.969215W,970.10,10.52,17
1461097,25.02,924.27,0,24.21,-6.72,3.46,2.56,4:15:18,34.190632N,-112.969238W,969.70,10.01,17
1462098,25.01,923.99,0,24.18,-11.05,6.06,0.40,4:15:19,34.190598N,-112.969269W,969.00,9.83,17
1463099,25.01,923.90,0,24.20,-7.97,3.34,2.29,4:15:20,34.190559N,-112.969292W,968.40,9.84,17
1464100,25.01,923.72,0,24.17,-8.98,3.61,2.88,4:15:21,34.190525N,-112.969330W,967.70,9.77,17
1465101,25.01,923.54,0,24.15,-9.87,4.53,3.48,4:15:22,34.190495N,-112.969360W,967.20,9.78,17
1466102,25.01,923.45,0,24.17,-8.93,4.48,2.38,4:15:23,34.190460N,-112.969383W,966.90,10.06,17
1467103,25.01,923.45,0,24.11,-9.40,3.84,3.00,4:15:24,34.190434N,-112.969406W,967.00,9.75,17
1468104,25.01,923.27,0,24.14,-8.83,4.56,1.10,4:15:25,34.190399N,-112.969437W,967.10,9.73,17
1469105,25.01,923.18,0,24.14,-8.38,4.08,2.30,4:15:26,34.190365N,-112.969460W,966.90,10.54,17
1470106,25.02,923.18,0,24.14,-8.64,3.82,2.20,4:15:27,34.190334N,-112.969482W,966.80,10.17,17
1471107,25.02,922.99,0,24.12,-9.03,4.24,1.77,4:15:28,34.190304N,-112.969521W,966.50,10.81,17
1472108,25.02,922.90,0,24.12,-9.01,3.85,2.34,4:15:29,34.190273N,-112.969559W,966.20,10.54,17
1473109,25.02,922.63,0,24.17,-9.54,4.24,2.25,4:15:30,34.190239N,-112.969597W,965.80,10.99,17
1474110,25.02,922.63,0,24.16,-8.96,4.14,2.58,4:15:31,34.190205N,-112.969627W,965.40,11.04,17
1475111,25.02,922.54,0,24.19,-8.88,4.80,1.20,4:15:32,34.190174N,-112.969666W,965.20,11.26,17
1476112,25.01,922.45,0,24.14,-8.09,3.88,1.57,4:15:33,34.190132N,-112.969719W,964.90,11.82,17
1477113,25.00,922.45,0,24.17,-8.52,4.91,0.55,4:15:34,34.190090N,-112.969765W,964.50,12.21,17
1478114,25.00,922.36,0,24.21,-8.42,4.55,0.20,4:15:35,34.190052N,-112.969803W,964.60,12.63,17
1479115,24.99,922.36,0,24.17,-8.30,3.88,1.70,4:15:36,34.190014N,-112.969856W,964.70,12.94,17
1480116,25.00,922.17,0,24.17,-8.71,4.71,1.10,4:15:37,34.189972N,-112.969894W,964.60,12.88,17
1481117,24.99,922.08,0,24.16,-8.49,4.67,0.88,4:15:38,34.189934N,-112.969933W,964.70,12.66,17
1482118,24.99,921.99,0,24.16,-7.84,4.22,1.70,4:15:39,34.189899N,-112.969986W,964.70,12.37,17
1483119,24.98,921.90,0,24.12,-8.23,3.81,2.36,4:15:40,34.189869N,-112.970024W,965.00,11.69,18
1484120,24.97,921.63,0,24.17,-8.11,4.65,2.43,4:15:41,34.189835N,-112.970070W,965.00,11.66,18
1485121,24.97,921.45,0,24.15,-8.92,4.90,3.02,4:15:42,34.189800N,-112.970123W,965.10,11.13,18
1486122,24.96,921.35,0,24.13,-7.86,4.85,1.92,4:15:43,34.189770N,-112.970161W,965.50,9.77,18
1487123,24.96,921.17,0,24.20,-7.03,3.90,1.57,4:15:44,34.189747N,-112.970200W,965.80,8.75,18
1488124,24.96,920.99,0,24.15,-9.86,5.54,1.26,4:15:45,34.189732N,-112.970230W,966.60,7.88,18
1489125,24.96,920.81,0,24.15,-7.90,4.07,1.97,4:15:46,34.189709N,-112.970253W,966.60,7.92,18
1490126,24.96,920.72,0,24.11,-9.02,4.75,1.44,4:15:47,34.189682N,-112.970276W,966.60,8.40,18
1491127,24.96,920.54,0,24.08,-8.98,4.27,0.73,4:15:48,34.189659N,-112.970306W,967.10,7.59,18
1492128,24.95,920.54,0,24.18,-8.65,4.22,0.36,4:15:49,34.189640N,-112.970329W,967.00,8.13,18
1493129,24.94,920.26,0,24.11,-9.77,4.56,5.70,4:15:50,34.189610N,-112.970352W,966.40,8.84,18
1494130,24.94,920.17,0,24.20,-8.27,4.53,1.54,4:15:51,34.189583N,-112.970367W,965.90,8.79,18
1495131,24.93,920.17,0,24.15,-8.85,4.26,1.35,4:15:52,34.189556N,-112.970390W,965.60,8.71,18
1496132,24.92,920.08,0,24.11,-8.67,4.01,3.29,4:15:53,34.189526N,-112.970421W,965.50,8.51,18
1497133,24.92,920.08,0,24.11,-8.43,4.70,0.99,4:15:54,34.189499N,-112.970428W,965.30,8.48,18
1498134,24.91,919.90,0,24.16,-10.16,5.61,1.67,4:15:55,34.189468N,-112.970444W,964.90,8.08,18
1499135,24.91,919.90,0,24.13,-9.65,5.10,1.94,4:15:56,34.189438N,-112.970459W,964.50,8.16,18
1500136,24.91,919.90,0,24.16,-6.34,2.78,2.01,4:15:57,34.189404N,-112.970482W,964.10,8.39,18
1501137,24.91,919.90,0,24.12,-9.12,4.34,1.11,4:15:58,34.189373N,-112.970497W,964.00,8.95,18
