time_since_start,bme_temp,bme_alt,uv,ism_temp,acc_x,acc_y,acc_z,gps_time,latitude,longitude,gps_alt,speed,sats
17185,0.00,405.27,30,27.90,-3.59,6.78,5.84,
18185,35.47,406.57,24,27.93,-4.06,7.21,5.99,
19186,35.46,405.88,25,27.94,-3.26,7.82,5.66,10:31:50,33.664295N,-114.007217W,0.00,0.25,0
20187,35.51,406.40,26,27.96,-3.79,7.21,5.42,10:31:51,33.664299N,-114.007217W,465.20,0.20,7
21188,35.54,406.48,35,27.98,-2.90,7.22,6.01,10:31:52,33.664299N,-114.007217W,465.40,0.13,6
22189,35.56,406.40,19,27.94,-3.09,7.04,5.75,10:31:53,33.664307N,-114.007217W,468.60,0.09,9
23190,35.58,405.97,26,27.97,-2.74,7.47,5.66,10:31:54,33.664314N,-114.007217W,471.50,0.13,9
24191,35.59,405.79,18,27.99,-2.69,7.55,5.80,10:31:55,33.664322N,-114.007210W,474.10,0.06,8
25192,35.60,405.45,16,27.96,-2.65,7.47,5.83,
26193,35.58,405.36,16,27.99,-2.76,7.46,5.74,
27194,35.54,405.27,99,27.97,-2.65,7.48,5.79,
28195,35.53,405.01,16,28.00,-2.58,7.42,6.01,
29196,35.53,405.36,16,27.99,-2.63,7.40,6.02,
30197,35.58,405.19,15,27.97,-2.41,7.49,6.07,10:32:1,33.664341N,-114.007332W,476.10,0.30,8
31198,35.62,405.10,15,28.01,-2.51,7.54,6.05,10:32:2,33.664356N,-114.007362W,467.50,0.45,9
32199,35.62,404.93,18,28.00,-2.46,7.47,6.00,10:32:3,33.664352N,-114.007362W,462.10,0.48,8
33200,35.59,404.75,15,28.03,-2.43,7.29,5.84,10:32:4,33.664360N,-114.007362W,459.50,0.40,8
34201,35.57,408.82,18,27.96,-2.34,7.19,6.07,10:32:5,33.664364N,-114.007370W,456.70,0.40,8
35202,35.57,411.85,18,28.04,-2.43,7.32,5.95,10:32:6,33.664364N,-114.007385W,454.10,0.44,9
36203,35.46,414.19,18,28.02,-2.65,7.20,6.09,10:32:7,33.664364N,-114.007385W,450.00,0.40,9
37204,35.34,415.93,19,28.05,-2.30,7.33,6.24,10:32:8,33.664360N,-114.007401W,448.30,0.33,9
38205,35.24,417.23,16,28.06,-2.68,7.17,6.18,10:32:9,33.664356N,-114.007408W,443.70,0.49,9
39206,35.13,418.35,18,28.02,-2.59,7.25,6.28,10:32:10,33.664379N,-114.007401W,450.10,0.53,13
40207,35.01,419.05,18,28.05,-2.71,7.12,6.45,10:32:11,33.664398N,-114.007401W,454.70,0.44,13
41208,34.94,419.65,18,28.03,-2.73,7.18,6.17,10:32:12,33.664402N,-114.007385W,455.80,0.40,13
42209,34.90,420.09,18,28.05,-2.99,7.16,6.41,10:32:13,33.664402N,-114.007385W,455.60,0.35,13
43210,34.87,416.45,23,28.04,-2.70,7.09,6.22,10:32:14,33.664406N,-114.007385W,457.30,0.52,13
44211,34.86,415.93,30,28.00,-3.13,7.12,5.41,10:32:15,33.664406N,-114.007385W,457.90,0.39,13
45212,34.90,415.41,70,28.07,-4.71,7.31,3.60,10:32:16,33.664406N,-114.007385W,457.70,0.31,13
46213,34.95,416.79,26,28.02,-5.46,7.94,2.56,10:32:17,33.664406N,-114.007385W,457.90,0.32,13
47214,34.95,417.92,25,28.04,-5.65,5.87,-0.14,10:32:18,33.664402N,-114.007385W,457.10,0.33,13
48215,34.92,418.70,24,28.03,-6.18,7.45,0.89,10:32:19,33.664402N,-114.007385W,456.30,0.37,13
49216,34.88,419.31,25,28.07,-6.36,7.22,0.51,10:32:20,33.664398N,-114.007385W,456.10,0.30,13
50217,34.82,419.83,21,28.05,-7.54,6.54,1.01,10:32:21,33.664394N,-114.007385W,455.00,0.39,13
51218,34.77,420.26,19,28.07,-7.30,6.16,1.07,10:32:22,33.664391N,-114.007385W,454.50,0.36,13
52219,34.72,420.52,19,28.07,-7.42,6.40,0.45,10:32:23,33.664387N,-114.007385W,453.60,0.38,13
53220,34.64,420.78,21,28.02,-7.21,6.03,0.25,10:32:24,33.664387N,-114.007385W,452.90,0.38,13
54221,34.52,421.04,20,28.06,-7.28,5.90,-0.38,10:32:25,33.664429N,-114.007401W,457.60,0.52,13
55222,34.39,421.13,23,28.02,-8.16,6.26,0.22,10:32:26,33.664455N,-114.007408W,460.20,0.40,13
56223,34.27,421.21,20,28.06,-8.57,5.57,-0.10,10:32:27,33.664482N,-114.007408W,462.80,0.49,13
57224,34.15,421.39,21,28.06,-7.52,5.92,0.25,10:32:28,33.664497N,-114.007423W,464.50,0.45,13
58225,34.03,421.39,21,28.00,-7.79,6.02,0.02,10:32:29,33.664509N,-114.007423W,465.70,0.41,13
59226,33.92,421.30,20,28.03,-7.67,5.79,-0.08,10:32:30,33.664513N,-114.007423W,466.30,0.21,13
60227,33.80,421.21,19,28.05,-7.67,5.92,0.75,10:32:31,33.664516N,-114.007423W,466.70,0.09,13
61228,33.70,421.21,21,28.05,-8.09,5.78,0.56,10:32:32,33.664520N,-114.007423W,466.90,0.08,13
62229,33.60,421.21,21,28.08,-7.67,6.08,0.85,10:32:33,33.664520N,-114.007423W,467.00,0.10,13
63230,33.49,421.30,25,28.06,-7.83,6.24,0.35,10:32:34,33.664524N,-114.007423W,467.20,0.18,13
64231,33.42,421.39,25,28.07,-7.59,5.76,0.51,10:32:35,33.664528N,-114.007423W,467.30,0.26,13
65232,33.34,421.47,25,28.06,-7.79,5.50,0.63,10:32:36,33.664532N,-114.007423W,467.50,0.16,13
66233,33.27,421.47,19,28.07,-7.69,5.89,0.41,10:32:37,33.664536N,-114.007423W,467.70,0.15,13
67234,33.19,421.39,19,28.09,-8.11,6.13,0.01,10:32:38,33.664539N,-114.007423W,467.90,0.03,13
68235,33.13,421.39,16,28.06,-8.13,5.99,0.94,10:32:39,33.664539N,-114.007423W,468.00,0.05,13
69236,33.06,421.39,19,28.08,-8.30,5.17,1.15,10:32:40,33.664547N,-114.007423W,469.20,0.08,14
70237,32.99,421.30,19,28.05,-8.35,5.07,1.53,10:32:41,33.664555N,-114.007423W,470.10,0.13,14
71238,32.91,421.13,34,28.06,-8.34,5.02,1.74,10:32:42,33.664562N,-114.007423W,470.70,0.12,14
72239,32.82,420.95,140,28.07,-7.81,5.36,3.00,10:32:43,33.664570N,-114.007423W,471.80,0.06,14
73240,32.71,420.87,35,28.05,-7.64,5.03,2.70,10:32:44,33.664577N,-114.007423W,472.60,0.08,14
74241,32.63,418.09,167,28.04,-8.02,4.94,3.26,10:32:45,33.664589N,-114.007423W,472.70,0.05,14
75242,32.57,397.40,181,28.08,-6.92,4.19,4.05,10:32:46,33.664597N,-114.007439W,473.10,0.41,14
76243,32.82,381.49,94,28.09,-8.09,6.11,3.91,10:32:47,33.664600N,-114.007439W,473.20,1.24,14
77244,33.14,387.45,171,28.07,-7.79,5.33,3.38,10:32:48,33.664600N,-114.007439W,473.60,1.60,14
78245,33.07,395.24,141,28.05,-7.66,5.93,2.62,10:32:49,33.664604N,-114.007439W,474.70,1.23,14
79246,33.00,401.46,31,28.08,-6.52,5.32,5.24,10:32:50,33.664604N,-114.007439W,475.00,0.77,14
80247,32.89,406.14,16,28.07,-8.11,4.03,3.83,10:32:51,33.664608N,-114.007439W,475.10,0.86,14
81248,32.77,409.69,18,28.05,-8.58,3.46,3.24,10:32:52,33.664608N,-114.007439W,475.30,0.37,14
82249,32.64,412.29,11,28.09,-7.81,4.44,3.07,10:32:53,33.664612N,-114.007439W,475.50,0.30,14
83250,32.52,414.37,14,28.07,-8.68,4.24,2.00,10:32:54,33.664612N,-114.007439W,475.60,0.14,14
84251,32.42,415.84,13,28.04,-8.39,4.55,1.75,10:32:55,33.664612N,-114.007423W,475.40,0.12,14
85252,32.34,417.05,13,28.09,-8.93,3.85,1.62,10:32:56,33.664612N,-114.007423W,475.50,0.10,14
86253,32.28,417.92,19,28.07,-9.45,2.39,2.08,10:32:57,33.664612N,-114.007423W,475.40,0.14,14
87254,32.21,418.61,15,28.07,-9.32,2.47,2.14,10:32:58,33.664612N,-114.007423W,475.40,0.07,14
88255,32.14,419.05,18,28.09,-9.35,2.46,2.04,10:32:59,33.664612N,-114.007423W,475.40,0.02,14
89256,32.07,419.39,16,28.09,-9.07,2.35,2.13,10:33:0,33.664612N,-114.007423W,475.50,0.03,14
90257,32.00,419.65,0,28.09,-9.31,2.67,2.22,10:33:1,33.664612N,-114.007423W,475.50,0.02,14
91258,31.95,419.83,14,28.08,-9.40,2.60,2.02,10:33:2,33.664612N,-114.007423W,475.50,0.08,14
92259,31.90,420.09,16,28.11,-9.31,2.59,2.01,10:33:3,33.664612N,-114.007423W,475.50,0.06,14
93260,31.84,420.17,13,28.09,-9.49,2.18,2.05,10:33:4,33.664612N,-114.007423W,475.50,0.10,14
94261,31.80,420.17,16,28.07,-9.53,2.33,2.09,10:33:5,33.664612N,-114.007423W,475.50,0.14,14
95262,31.77,420.00,25,28.06,-9.31,2.40,2.08,10:33:6,33.664612N,-114.007423W,475.50,0.13,14
96263,31.74,420.00,0,28.09,-9.26,2.54,2.22,10:33:7,33.664616N,-114.007423W,475.50,0.08,13
97264,31.72,420.00,39,28.11,-7.59,4.31,3.30,10:33:8,33.664616N,-114.007423W,475.50,0.10,14
98265,31.68,419.74,42,28.07,-7.83,4.68,3.70,10:33:9,33.664616N,-114.007423W,475.50,0.12,13
99266,31.63,419.74,42,28.07,-7.51,5.60,3.08,10:33:10,33.664616N,-114.007423W,475.50,0.01,15
100267,31.56,420.00,42,28.08,-7.65,5.53,3.23,10:33:11,33.664616N,-114.007423W,475.50,0.09,15
101268,31.49,420.17,43,28.10,-7.38,5.68,3.26,10:33:12,33.664616N,-114.007423W,475.50,0.03,15
102269,31.43,420.17,42,28.05,-7.06,5.90,3.33,10:33:13,33.664616N,-114.007423W,475.40,0.06,15
103270,31.36,420.26,40,28.05,-6.44,6.41,3.61,10:33:14,33.664616N,-114.007423W,475.40,0.07,15
104271,31.29,420.26,39,28.09,-7.28,6.02,2.77,10:33:15,33.664616N,-114.007423W,475.40,0.10,15
105272,31.24,420.35,38,28.11,-7.30,6.01,2.29,10:33:16,33.664616N,-114.007423W,475.40,0.08,15
106273,31.20,420.35,38,28.09,-7.26,6.16,2.72,10:33:17,33.664616N,-114.007439W,475.40,0.32,15
107274,31.16,420.43,36,28.09,-7.66,5.36,3.02,10:33:18,33.664616N,-114.007439W,475.40,0.15,15
108275,31.14,420.43,38,28.09,-7.42,5.70,2.36,10:33:19,33.664616N,-114.007439W,475.40,0.05,15
109276,31.09,420.43,38,28.10,-7.30,6.03,2.44,10:33:20,33.664616N,-114.007439W,475.30,0.68,15
110277,31.04,420.35,38,28.05,-7.47,5.91,2.20,10:33:21,33.664616N,-114.007439W,475.60,0.64,15
111278,30.99,420.43,39,28.09,-7.50,5.62,2.65,10:33:22,33.664619N,-114.007439W,475.90,0.17,15
112279,30.93,420.43,34,28.07,-7.34,6.07,2.11,10:33:23,33.664619N,-114.007439W,475.90,0.02,15
113280,30.88,420.43,36,28.08,-7.26,6.05,2.10,10:33:24,33.664619N,-114.007439W,475.90,0.16,15
114281,30.81,420.35,36,28.10,-7.14,6.42,2.02,10:33:25,33.664619N,-114.007439W,475.90,0.13,15
115282,30.75,420.35,38,28.06,-7.14,6.30,1.94,10:33:26,33.664619N,-114.007439W,475.90,0.09,15
116283,30.71,420.35,38,28.09,-7.16,6.39,2.03,10:33:27,33.664619N,-114.007439W,475.90,0.08,15
117284,30.67,420.26,36,28.07,-7.43,5.97,1.24,10:33:28,33.664619N,-114.007439W,475.90,0.14,15
118285,30.63,420.26,44,28.09,-7.59,6.05,3.68,10:33:29,33.664619N,-114.007439W,475.90,0.01,15
119286,30.59,420.26,36,28.07,-9.38,3.63,1.12,10:33:30,33.664619N,-114.007439W,475.90,0.10,15
120287,30.55,420.26,38,28.09,-9.26,2.51,1.45,10:33:31,33.664619N,-114.007439W,475.90,0.24,15
121288,30.47,420.17,39,28.11,-9.38,2.43,1.52,10:33:32,33.664619N,-114.007439W,475.90,0.02,15
122289,30.40,420.17,39,28.12,-9.38,2.35,1.58,10:33:33,33.664619N,-114.007439W,475.90,0.06,15
123290,30.33,420.17,40,28.08,-9.45,2.20,1.69,10:33:34,33.664619N,-114.007439W,475.90,0.07,15
124291,30.26,420.00,40,28.09,-9.41,2.19,1.64,10:33:35,33.664619N,-114.007439W,475.90,0.15,15
125292,30.20,419.91,40,28.06,-9.43,2.09,1.61,10:33:36,33.664619N,-114.007439W,475.90,0.07,15
126293,30.15,419.91,40,28.09,-9.44,1.97,1.85,10:33:37,33.664619N,-114.007439W,475.90,0.03,15
127294,30.10,420.00,42,28.06,-9.68,0.47,2.36,10:33:38,33.664619N,-114.007439W,475.90,0.10,15
128295,30.03,420.00,42,28.12,-9.61,0.48,2.41,10:33:39,33.664619N,-114.007439W,475.90,0.15,15
129296,29.96,420.00,42,28.09,-9.72,0.54,2.43,10:33:40,33.664619N,-114.007439W,475.90,0.13,16
130297,29.89,420.00,44,28.11,-9.67,-0.24,2.25,10:33:41,33.664619N,-114.007423W,475.90,0.07,16
131298,29.84,419.74,43,28.08,-9.53,0.50,2.77,10:33:42,33.664619N,-114.007423W,475.90,0.15,16
132299,29.80,419.83,43,28.09,-9.42,0.37,2.63,10:33:43,33.664619N,-114.007423W,475.90,0.02,16
133300,29.76,419.91,42,28.09,-9.45,0.26,2.86,10:33:44,33.664619N,-114.007423W,475.90,0.01,16
134301,29.72,420.00,42,28.07,-9.52,0.15,2.84,10:33:45,33.664619N,-114.007423W,475.90,0.03,16
135302,29.66,419.91,43,28.08,-9.27,0.58,2.86,10:33:46,33.664619N,-114.007423W,475.90,0.01,16
136303,29.61,419.83,42,28.09,-9.45,0.21,2.92,10:33:47,33.664619N,-114.007423W,475.90,0.00,16
137304,29.56,419.91,40,28.08,-9.49,-0.52,2.42,10:33:48,33.664619N,-114.007423W,475.90,0.00,16
138305,29.53,419.83,42,28.08,-9.67,-0.20,2.34,10:33:49,33.664619N,-114.007423W,475.90,0.02,16
139306,29.48,419.83,42,28.10,-9.53,-0.17,2.28,10:33:50,33.664619N,-114.007423W,475.90,0.00,16
140307,29.42,419.83,73,28.07,-9.68,0.10,2.13,10:33:51,33.664619N,-114.007423W,475.80,0.03,16
141308,29.35,419.74,126,28.10,-10.09,1.27,1.66,10:33:52,33.664619N,-114.007423W,475.80,0.01,16
142309,29.30,419.91,30,28.08,-9.15,3.75,1.49,10:33:53,33.664619N,-114.007423W,475.80,0.01,16
143310,29.24,419.83,25,28.07,-6.36,6.79,-1.57,10:33:54,33.664619N,-114.007423W,475.80,0.02,16
144311,29.19,419.65,24,28.09,-4.14,6.63,-4.51,10:33:55,33.664619N,-114.007423W,475.80,0.01,16
145312,29.12,419.91,25,28.12,-5.24,5.46,-5.10,10:33:56,33.664619N,-114.007423W,475.80,0.12,16
146313,29.07,420.00,23,28.09,-6.29,4.98,-5.15,10:33:57,33.664619N,-114.007423W,475.80,0.05,16
147314,29.01,423.99,23,28.11,-7.87,6.07,1.35,10:33:58,33.664619N,-114.007423W,475.80,0.35,16
148315,28.97,421.21,87,28.10,-7.72,5.24,-0.54,10:33:59,33.664619N,-114.007423W,475.90,0.32,16
149316,28.96,421.21,18,28.08,-8.81,4.72,-0.87,10:34:0,33.664619N,-114.007423W,475.90,0.26,16
150317,28.92,419.65,14,28.12,-8.26,4.95,-0.88,10:34:1,33.664619N,-114.007423W,476.00,0.14,16
151318,28.85,412.81,14,28.10,-8.54,4.93,-0.76,10:34:2,33.664619N,-114.007423W,476.00,0.18,16
152319,28.80,414.63,15,28.05,-8.68,4.78,-0.43,10:34:3,33.664619N,-114.007423W,476.00,0.13,16
153320,28.76,416.19,16,28.09,-8.27,4.85,-0.46,10:34:4,33.664619N,-114.007423W,476.00,0.06,16
154321,28.71,417.31,14,28.09,-8.89,4.38,-0.51,10:34:5,33.664619N,-114.007423W,476.00,0.06,16
155322,28.66,418.18,14,28.08,-8.14,4.44,-0.98,10:34:6,33.664619N,-114.007423W,476.00,0.28,16
156323,28.62,418.79,15,28.07,-8.59,5.09,-0.24,10:34:7,33.664619N,-114.007423W,476.00,0.15,16
157324,28.58,419.13,15,28.09,-8.46,4.97,-0.62,10:34:8,33.664619N,-114.007423W,476.00,0.12,16
158325,28.54,419.57,14,28.09,-8.30,4.78,-0.93,10:34:9,33.664619N,-114.007423W,476.00,0.06,15
159326,28.49,419.83,14,28.09,-8.26,4.56,-1.24,10:34:10,33.664619N,-114.007423W,476.00,0.33,15
160327,28.44,420.09,14,28.08,-8.16,4.85,-1.02,10:34:11,33.664619N,-114.007423W,476.00,0.07,16
161328,28.40,420.26,23,28.07,-8.41,4.48,-1.36,10:34:12,33.664619N,-114.007423W,476.00,0.05,16
162329,28.35,420.35,42,28.07,-8.70,4.88,-0.76,10:34:13,33.664619N,-114.007423W,476.00,0.03,16
163330,28.31,420.43,14,28.07,-7.60,5.24,-0.80,10:34:14,33.664619N,-114.007423W,476.00,0.35,16
164331,28.27,417.14,15,28.08,-7.69,5.99,-0.45,10:34:15,33.664619N,-114.007423W,476.00,0.16,16
165332,28.22,418.01,18,28.09,-7.10,5.47,-1.06,10:34:16,33.664619N,-114.007423W,476.00,0.47,16
166333,28.19,418.70,16,28.08,-6.79,6.38,-1.56,10:34:17,33.664619N,-114.007439W,476.00,0.08,16
167334,28.14,418.96,18,28.07,-7.60,5.60,-1.75,10:34:18,33.664619N,-114.007439W,476.00,0.08,16
168335,28.07,419.22,121,28.08,-9.82,3.40,0.58,10:34:19,33.664619N,-114.007439W,476.00,0.13,16
169336,28.00,419.31,86,28.08,-8.87,4.52,0.12,10:34:20,33.664619N,-114.007439W,475.90,0.14,16
170337,27.94,403.80,148,28.07,-12.79,-4.19,5.14,10:34:21,33.664619N,-114.007439W,475.90,0.10,16
171338,27.91,407.87,36,28.07,-6.36,5.47,0.77,10:34:22,33.664619N,-114.007439W,475.90,0.55,16
172339,27.91,410.90,34,28.08,-8.26,4.40,0.66,10:34:23,33.664619N,-114.007439W,475.70,0.36,16
173340,27.88,412.81,29,28.08,-8.94,4.68,1.11,10:34:24,33.664619N,-114.007439W,475.70,0.23,16
174341,27.83,414.37,30,28.08,-8.57,4.32,0.74,10:34:25,33.664619N,-114.007439W,475.80,0.26,16
175342,27.77,415.67,31,28.09,-8.57,4.49,1.00,10:34:26,33.664619N,-114.007439W,475.80,0.18,16
176343,27.71,416.62,34,28.09,-8.42,4.54,1.18,10:34:27,33.664619N,-114.007423W,475.80,0.14,16
177344,27.67,417.31,29,28.11,-8.58,4.33,1.08,10:34:28,33.664619N,-114.007423W,476.00,0.14,16
178345,27.62,418.01,30,28.09,-8.61,4.27,1.18,10:34:29,33.664619N,-114.007423W,476.00,0.09,16
179346,27.58,418.44,26,28.08,-8.94,4.26,1.06,10:34:30,33.664619N,-114.007423W,476.10,0.08,16
180347,27.53,418.53,21,28.09,-8.89,4.33,0.95,10:34:31,33.664619N,-114.007423W,476.10,0.14,16
181348,27.48,418.79,53,28.08,-8.77,4.18,0.99,10:34:32,33.664623N,-114.007423W,476.20,0.10,16
182349,27.41,418.70,62,28.11,-8.91,3.60,2.28,10:34:33,33.664623N,-114.007423W,476.20,0.13,16
183350,27.35,418.79,55,28.09,-9.10,3.58,1.17,10:34:34,33.664623N,-114.007423W,476.30,0.26,16
184351,27.29,419.05,26,28.09,-9.59,3.43,0.87,10:34:35,33.664623N,-114.007423W,476.20,0.13,15
185352,27.23,419.13,19,28.08,-9.37,3.76,1.06,10:34:36,33.664623N,-114.007423W,476.30,0.15,16
186353,27.16,419.13,19,28.13,-8.82,4.06,0.83,10:34:37,33.664623N,-114.007423W,476.30,0.16,16
187354,27.11,419.31,42,28.10,-9.01,3.88,0.76,10:34:38,33.664623N,-114.007423W,476.30,0.08,16
188355,27.06,419.48,20,28.12,-8.90,3.91,0.64,10:34:39,33.664623N,-114.007423W,476.20,0.18,14
189356,27.03,419.57,18,28.10,-9.04,4.04,0.25,10:34:40,33.664623N,-114.007423W,476.20,0.05,17
190357,27.00,419.65,30,28.12,-9.06,3.80,0.14,10:34:41,33.664623N,-114.007423W,476.20,0.23,17
191358,26.98,419.74,0,28.11,-8.61,3.56,-0.22,10:34:42,33.664623N,-114.007423W,476.20,0.12,17
192359,26.96,419.74,26,28.09,-8.99,3.84,0.53,10:34:43,33.664623N,-114.007423W,476.20,0.18,17
193360,26.94,419.91,0,28.08,-9.17,3.90,-0.17,10:34:44,33.664623N,-114.007423W,476.20,0.15,17
194361,26.93,419.91,0,28.07,-9.28,3.66,-0.52,10:34:45,33.664623N,-114.007423W,476.20,0.10,17
195362,26.92,419.91,0,28.09,-9.19,3.53,0.56,10:34:46,33.664623N,-114.007423W,476.20,0.54,17
196363,26.91,419.91,33,28.08,-9.21,3.35,0.02,10:34:47,33.664623N,-114.007439W,476.20,0.22,17
197364,26.90,420.09,34,28.11,-9.21,3.32,-0.17,10:34:48,33.664623N,-114.007439W,476.20,0.12,17
198365,26.88,420.00,3,28.09,-9.16,3.41,-0.06,10:34:49,33.664623N,-114.007439W,476.30,0.12,17
199366,26.84,420.00,29,28.10,-9.24,3.09,-0.27,10:34:50,33.664623N,-114.007439W,476.30,0.10,17
200367,26.79,419.91,30,28.08,-9.16,3.20,-0.08,10:34:51,33.664623N,-114.007423W,476.30,0.10,17
201368,26.75,419.83,50,28.10,-9.29,3.13,-0.07,10:34:52,33.664623N,-114.007423W,476.30,0.18,17
202369,26.70,419.91,0,28.11,-9.19,3.39,0.02,10:34:53,33.664627N,-114.007423W,476.30,0.36,17
203370,26.65,419.83,34,28.09,-9.12,3.14,-0.22,10:34:54,33.664627N,-114.007423W,476.30,0.24,17
204371,26.59,419.83,0,28.09,-8.96,3.13,-0.52,10:34:55,33.664627N,-114.007423W,476.40,0.21,17
205372,26.52,419.74,0,28.09,-9.05,3.84,-1.33,10:34:56,33.664623N,-114.007423W,476.40,0.18,17
206373,26.48,419.74,50,28.10,-9.13,3.46,-1.06,10:34:57,33.664623N,-114.007423W,476.40,0.31,17
207374,26.42,419.91,140,28.09,-8.97,3.64,-1.00,10:34:58,33.664623N,-114.007423W,476.40,0.12,17
208375,26.36,419.91,0,28.12,-9.15,2.94,-0.95,10:34:59,33.664623N,-114.007423W,476.40,0.06,17
209376,26.31,420.00,0,28.09,-9.10,3.27,-1.19,10:35:0,33.664623N,-114.007423W,476.50,0.53,17
210377,26.26,420.09,55,28.10,-9.24,3.24,-1.01,10:35:1,33.664627N,-114.007423W,476.40,0.20,17
211378,26.23,419.91,119,28.13,-9.38,2.89,-0.26,10:35:2,33.664627N,-114.007423W,476.60,0.08,17
212379,26.19,419.91,148,28.12,-9.12,2.97,-0.06,10:35:3,33.664627N,-114.007423W,476.90,0.10,17
213380,26.14,419.65,122,28.12,-9.33,3.12,0.47,10:35:4,33.664627N,-114.007423W,477.00,0.33,17
214381,26.09,419.57,206,28.08,-9.56,2.46,-0.08,10:35:5,33.664627N,-114.007423W,476.90,0.29,17
215382,26.04,419.48,21,28.09,-9.34,2.77,-0.36,10:35:6,33.664627N,-114.007423W,476.90,0.28,17
216383,26.00,419.48,29,28.09,-9.08,3.55,0.50,10:35:7,33.664623N,-114.007423W,477.20,0.26,17
217384,25.95,419.39,39,28.10,-9.17,3.52,0.10,10:35:8,33.664623N,-114.007423W,477.10,0.40,17
218385,25.90,419.39,23,28.13,-8.86,3.54,-0.50,10:35:9,33.664627N,-114.007423W,477.20,0.18,17
219386,25.86,419.57,24,28.12,-8.91,3.70,-0.17,10:35:10,33.664623N,-114.007423W,477.20,0.12,17
220387,25.83,419.65,78,28.10,-9.04,3.93,-0.67,10:35:11,33.664623N,-114.007423W,477.20,0.15,17
221388,25.79,419.74,23,28.11,-8.87,3.38,-0.30,10:35:12,33.664623N,-114.007423W,477.10,0.37,17
222389,25.77,419.83,36,28.11,-8.98,3.71,-1.01,10:35:13,33.664623N,-114.007423W,477.30,0.41,17
223390,25.74,419.91,16,28.09,-9.06,3.28,-0.48,10:35:14,33.664623N,-114.007423W,477.50,0.10,17
224391,25.70,419.91,24,28.09,-9.13,3.27,-0.82,10:35:15,33.664623N,-114.007423W,477.70,0.22,17
225392,25.66,419.83,26,28.12,-9.02,3.35,-0.62,10:35:16,33.664623N,-114.007423W,477.60,0.39,17
226393,25.62,419.83,0,28.12,-9.43,3.01,-0.80,10:35:17,33.664627N,-114.007423W,477.70,0.54,17
227394,25.58,419.83,25,28.12,-9.10,3.22,-0.54,10:35:18,33.664623N,-114.007423W,477.80,0.09,17
228395,25.55,419.83,140,28.10,-9.43,3.01,-0.41,10:35:19,33.664623N,-114.007423W,477.90,0.09,17
229396,25.53,419.91,102,28.12,-9.55,2.53,0.07,10:35:20,33.664623N,-114.007423W,478.10,0.61,17
230397,25.50,419.83,29,28.09,-9.49,2.85,0.04,10:35:21,33.664623N,-114.007423W,478.10,0.30,17
231398,25.48,419.83,30,28.11,-9.08,2.92,-0.26,10:35:22,33.664623N,-114.007423W,477.90,0.22,17
232399,25.46,419.74,26,28.11,-9.47,2.93,-0.21,10:35:23,33.664623N,-114.007423W,477.80,0.77,17
233400,25.43,419.65,20,28.12,-9.44,2.80,-0.33,10:35:24,33.664623N,-114.007423W,477.90,0.46,17
234401,25.40,419.57,21,28.14,-9.36,2.90,-0.39,10:35:25,33.664627N,-114.007423W,478.10,0.45,17
235402,25.35,419.48,28,28.11,-9.10,2.83,-1.36,10:35:26,33.664627N,-114.007423W,477.80,0.45,17
236403,25.31,419.48,9,28.15,-7.97,0.92,0.72,10:35:27,33.664627N,-114.007423W,477.90,0.44,17
237404,25.26,419.48,40,28.12,-9.84,3.09,0.84,10:35:28,33.664631N,-114.007423W,477.90,0.41,17
238405,25.21,419.48,40,28.09,-9.30,2.92,0.42,10:35:29,33.664635N,-114.007423W,478.10,0.47,17
239406,25.16,419.48,102,28.13,-12.10,3.66,4.91,10:35:30,33.664639N,-114.007423W,478.20,0.46,17
240407,25.12,419.31,9,28.12,-10.13,1.23,1.37,10:35:31,33.664639N,-114.007423W,478.40,0.45,17
241408,25.10,419.13,0,28.10,-10.24,0.71,1.91,10:35:32,33.664639N,-114.007423W,478.40,0.44,17
242409,25.09,419.22,0,28.12,-9.23,-1.30,0.00,10:35:33,33.664642N,-114.007423W,478.40,0.41,17
243410,25.08,419.48,24,28.12,-9.95,-1.26,1.37,10:35:34,33.664642N,-114.007423W,478.40,0.38,17
244411,25.07,419.65,16,28.11,-9.83,-3.59,2.76,10:35:35,33.664646N,-114.007423W,478.50,0.35,17
245412,25.06,419.83,15,28.12,-9.66,-1.83,1.20,10:35:36,33.664650N,-114.007423W,478.50,0.35,16
246413,25.04,419.91,15,28.12,-9.68,-1.67,1.06,10:35:37,33.664650N,-114.007423W,478.50,0.33,17
247414,25.02,420.09,20,28.14,-9.67,-1.91,1.69,10:35:38,33.664654N,-114.007423W,478.60,0.33,17
248415,25.00,420.00,16,28.13,-9.61,-2.37,-1.01,10:35:39,33.664654N,-114.007423W,478.60,0.31,17
249416,24.96,419.83,24,28.12,-9.14,-3.14,-1.38,10:35:40,33.664658N,-114.007423W,478.60,0.30,17
250417,24.93,419.83,24,28.10,-8.82,-3.63,-2.17,10:35:41,33.664658N,-114.007423W,478.70,0.29,17
251418,24.90,419.74,24,28.12,-8.89,-3.90,-2.03,10:35:42,33.664658N,-114.007408W,478.80,0.30,17
252419,24.88,419.74,25,28.12,-9.01,-4.10,-1.44,10:35:43,33.664658N,-114.007423W,478.90,0.30,17
253420,24.86,419.74,25,28.17,-8.96,-4.00,-1.54,10:35:44,33.664661N,-114.007423W,479.00,0.31,17
254421,24.84,419.74,26,28.09,-8.97,-3.80,-1.22,10:35:45,33.664661N,-114.007423W,479.20,0.31,17
255422,24.81,419.65,25,28.09,-8.98,-3.64,-1.47,10:35:46,33.664661N,-114.007423W,479.40,0.29,17
256423,24.80,419.65,25,28.10,-8.60,-3.14,-1.50,10:35:47,33.664661N,-114.007423W,479.60,0.23,17
257424,24.78,419.74,28,28.12,-9.06,-3.32,-1.20,10:35:48,33.664661N,-114.007423W,479.70,0.17,17
258425,24.76,419.83,29,28.09,-8.54,-1.87,-0.85,10:35:49,33.664661N,-114.007423W,479.90,0.12,17
259426,24.73,419.83,29,28.10,-8.57,-4.37,-1.12,10:35:50,33.664661N,-114.007423W,480.20,0.08,17
260427,24.71,419.83,29,28.10,-8.57,-4.59,-1.30,10:35:51,33.664661N,-114.007423W,480.40,0.06,17
261428,24.69,419.83,29,28.08,-8.51,-4.67,-1.26,10:35:52,33.664661N,-114.007423W,480.60,0.06,17
262429,24.68,419.91,28,28.12,-8.72,-4.74,-1.07,10:35:53,33.664661N,-114.007423W,480.80,0.06,17
263430,24.65,419.91,25,28.11,-8.51,-4.57,-1.13,10:35:54,33.664661N,-114.007439W,481.00,0.07,17
264431,24.63,419.91,26,28.09,-8.72,-4.75,-0.96,10:35:55,33.664658N,-114.007439W,481.20,0.08,17
265432,24.62,419.83,21,28.12,-8.81,-3.87,-1.69,10:35:56,33.664658N,-114.007439W,481.40,0.07,17
266433,24.60,419.83,21,28.11,-8.92,-3.91,-1.71,10:35:57,33.664658N,-114.007439W,481.50,0.07,17
267434,24.59,419.83,23,28.11,-8.89,-4.04,-2.04,10:35:58,33.664658N,-114.007439W,481.60,0.06,17
268435,24.58,419.83,20,28.09,-8.89,-3.68,-1.15,10:35:59,33.664658N,-114.007439W,481.90,0.06,17
269436,24.56,419.83,19,28.13,-8.79,-3.38,-1.78,10:36:0,33.664661N,-114.007439W,482.10,0.05,17
270437,24.53,419.83,18,28.11,-9.42,-3.82,-2.65,10:36:1,33.664658N,-114.007439W,482.40,0.03,17
271438,24.51,419.83,15,28.12,-9.15,-2.70,-2.13,10:36:2,33.664658N,-114.007439W,482.50,0.03,17
272439,24.50,419.83,18,28.12,-9.60,-3.07,-1.99,10:36:3,33.664658N,-114.007439W,482.60,0.02,17
273440,24.48,419.83,16,28.11,-9.27,-3.07,-2.11,10:36:4,33.664658N,-114.007439W,482.80,0.02,17
274441,24.47,419.74,16,28.11,-9.18,-2.88,-2.53,10:36:5,33.664658N,-114.007446W,483.00,0.01,17
275442,24.46,419.74,21,28.09,-8.94,-2.87,-2.63,10:36:6,33.664658N,-114.007446W,483.10,0.02,17
276443,24.45,419.74,23,28.07,-8.69,-2.66,-2.70,10:36:7,33.664658N,-114.007446W,483.10,0.01,17
277444,24.45,419.74,24,28.12,-9.13,-2.54,-2.69,10:36:8,33.664658N,-114.007446W,483.20,0.03,17
278445,24.44,419.74,26,28.09,-9.17,-2.34,-2.57,10:36:9,33.664658N,-114.007446W,483.30,0.17,17
279446,24.43,419.74,24,28.09,-9.24,-1.30,-2.56,10:36:10,33.664658N,-114.007446W,483.30,0.09,17
280447,24.43,419.74,25,28.10,-9.35,-1.64,-2.14,10:36:11,33.664658N,-114.007446W,483.30,0.05,17
281448,24.42,419.74,26,28.11,-9.51,-1.45,-2.28,10:36:12,33.664658N,-114.007446W,483.30,0.08,17
282449,24.42,419.74,28,28.12,-9.82,-1.63,-1.73,10:36:13,33.664658N,-114.007446W,483.30,0.07,17
283450,24.41,419.65,26,28.08,-8.85,-1.79,-2.64,10:36:14,33.664658N,-114.007446W,483.30,0.01,17
284451,24.41,419.65,24,28.07,-9.08,-1.41,-2.51,10:36:15,33.664658N,-114.007446W,483.40,0.02,17
285452,24.38,419.57,23,28.13,-9.07,-1.89,-2.78,10:36:16,33.664658N,-114.007446W,483.40,0.18,17
286453,24.35,419.48,25,28.11,-9.08,-2.10,-2.80,10:36:17,33.664658N,-114.007446W,483.50,0.21,17
287454,24.33,419.48,24,28.09,-9.20,-1.83,-2.70,10:36:18,33.664658N,-114.007446W,483.40,0.10,17
288455,24.31,419.48,24,28.09,-9.13,-1.51,-2.38,10:36:19,33.664658N,-114.007446W,483.40,0.10,17
289456,24.28,419.57,24,28.09,-9.19,-1.56,-2.67,10:36:20,33.664658N,-114.007446W,483.40,0.08,17
290457,24.25,419.48,24,28.08,-9.09,-1.70,-2.86,10:36:21,33.664658N,-114.007446W,483.40,0.09,17
291458,24.24,419.39,24,28.10,-8.69,-1.86,-2.76,10:36:22,33.664658N,-114.007446W,483.40,0.09,17
292459,24.22,419.31,23,28.12,-9.26,-1.88,-3.10,10:36:23,33.664658N,-114.007446W,483.30,0.08,17
293460,24.20,419.31,24,28.09,-9.15,-1.93,-2.90,10:36:24,33.664658N,-114.007446W,483.30,0.06,17
294461,24.17,419.22,25,28.12,-8.65,-1.86,-3.10,10:36:25,33.664658N,-114.007446W,483.30,0.06,17
295462,24.15,419.22,21,28.12,-8.82,-2.38,-2.97,10:36:26,33.664658N,-114.007446W,483.30,0.03,17
296463,24.12,419.31,23,28.12,-9.21,-2.02,-3.25,10:36:27,33.664658N,-114.007446W,483.30,0.02,16
297464,24.09,419.31,21,28.12,-9.21,-1.92,-3.42,10:36:28,33.664658N,-114.007446W,483.30,0.02,17
298465,24.07,419.31,24,28.10,-8.78,-1.73,-3.78,10:36:29,33.664658N,-114.007446W,483.30,0.12,17
299466,24.05,419.31,25,28.12,-8.83,-2.37,-3.77,10:36:30,33.664658N,-114.007439W,483.30,0.12,17
300467,24.04,419.31,24,28.11,-8.80,-1.67,-3.53,10:36:31,33.664658N,-114.007439W,483.30,0.10,17
